,Tn,MT,chunk,display_trial_feedback,feedback_dur,feedback_type,hand,is_error,item_dur,iti_dur,number_correct,phase,phase_type,points,recall_dir,response,response_time,run_number,seq_length,seq_str,trial_dur,P1,P2,P3,P4,P5,P6,IPI_0,IPI_1,IPI_2,IPI_3,IPI_4,IPI_5
0,0,0.0,3,False,0.0,None,right,False,2,1,0,enc,0,0,1,[],[],1,6,2 2 2 4 4 3,6,0.0,0.0,0.0,0.0,0.0,0.0,0,0.0,0.0,0.0,0.0,0.0
1,1,2.2882944,3,True,0.5,acc,right,False,2,1,6,ret,1,10,1,"['2', '2', '2', '4', '4', '3']","[5.476285799999459, 5.69233389999863, 5.892237000000023, 7.3243458999986615, 7.516262899998765, 7.764580199998818]",1,6,# # # # # #,None,5.476285799999459,5.69233389999863,5.892237000000023,7.3243458999986615,7.516262899998765,7.764580199998818,-1.0237142000005406,0.21604809999917052,0.19990310000139289,1.4321088999986387,0.19191700000010314,0.24831730000005336
2,2,0.0,3,False,0.0,None,right,False,2,1,0,enc,0,0,1,[],[],1,6,1 3 1 3 1 2,6,0.0,0.0,0.0,0.0,0.0,0.0,0,0.0,0.0,0.0,0.0,0.0
3,3,2.0318866,3,True,0.5,acc,right,False,2,1,6,ret,1,10,1,"['1', '3', '1', '3', '1', '2']","[14.65248259999862, 15.180309800000032, 15.820299199998772, 16.180395899998985, 16.42836829999942, 16.68436920000022]",1,6,# # # # # #,None,14.65248259999862,15.180309800000032,15.820299199998772,16.180395899998985,16.42836829999942,16.68436920000022,0.3879023999998026,0.5278272000014113,0.6399893999987398,0.3600967000002129,0.2479724000004353,0.25600090000079945
4,4,0.0,3,False,0.0,None,right,False,2,1,0,enc,0,0,0,[],[],1,6,4 1 4 3 4 3,6,0.0,0.0,0.0,0.0,0.0,0.0,0,0.0,0.0,0.0,0.0,0.0
5,5,8.0798534,3,True,0.5,acc,right,True,2,1,5,ret,1,5,0,"['3', 'space', '3', '4', '1', '4']","[24.532399099998656, 24.940377199998693, 28.42052429999967, 32.052263599998696, 32.348229600000195, 32.61225249999916]",1,6,# # # # # #,None,24.532399099998656,24.940377199998693,28.42052429999967,32.052263599998696,32.348229600000195,32.61225249999916,1.348029899998437,0.40797810000003665,3.480147100000977,3.631739299999026,0.2959660000014992,0.2640228999989631
6,6,0.0,2,False,0.0,None,right,False,2,1,0,enc,0,0,1,[],[],1,6,4 3 4 1 4 4,4,0.0,0.0,0.0,0.0,0.0,0.0,0,0.0,0.0,0.0,0.0,0.0
7,7,3.7920698,2,True,0.5,acc,right,True,2,1,5,ret,1,5,1,"['4', '1', '4', '1', '4', '4']","[41.46027089999916, 41.72427009999956, 44.300314199999775, 44.53226050000012, 45.028453199998694, 45.25234069999897]",1,6,# # # # # #,None,41.46027089999916,41.72427009999956,44.300314199999775,44.53226050000012,45.028453199998694,45.25234069999897,2.348018400000001,0.26399920000039856,2.5760441000002174,0.23194630000034522,0.4961926999985735,0.22388750000027358
8,8,0.0,2,False,0.0,None,right,False,2,1,0,enc,0,0,0,[],[],1,6,4 1 3 3 1 4,4,0.0,0.0,0.0,0.0,0.0,0.0,0,0.0,0.0,0.0,0.0,0.0
9,9,1.5278768,2,True,0.5,acc,right,True,2,1,4,ret,1,4,0,"['4', '1', '3', '3', '4', '1']","[55.60427410000011, 55.89241140000013, 56.18020129999968, 56.42027210000015, 56.85240369999883, 57.13215089999903]",1,6,# # # # # #,None,55.60427410000011,55.89241140000013,56.18020129999968,56.42027210000015,56.85240369999883,57.13215089999903,3.851933400001144,0.2881373000000167,0.2877898999995523,0.240070800000467,0.43213159999868367,0.2797472000002017
10,10,0.0,2,False,0.0,None,right,False,2,1,0,enc,0,0,0,[],[],1,6,1 3 4 2 2 2,4,0.0,0.0,0.0,0.0,0.0,0.0,0,0.0,0.0,0.0,0.0,0.0
11,11,4.1519888,2,True,0.5,acc,right,True,2,1,3,ret,1,3,0,"['2', '2', '4', '1', '3', '2']","[66.58832780000012, 66.86855879999894, 67.2603612999992, 67.70822880000014, 70.4523154999988, 70.74031659999855]",1,6,# # # # # #,None,66.58832780000012,66.86855879999894,67.2603612999992,67.70822880000014,70.4523154999988,70.74031659999855,2.9561769000010827,0.28023099999882106,0.3918025000002672,0.4478675000009389,2.744086699998661,0.28800109999974666
12,12,0.0,3,False,0.0,None,right,False,2,1,0,enc,0,0,0,[],[],1,6,4 1 1 1 4 3,6,0.0,0.0,0.0,0.0,0.0,0.0,0,0.0,0.0,0.0,0.0,0.0
13,13,3.807967,3,True,0.5,acc,right,True,2,1,4,ret,1,4,0,"['3', '4', '1', '4', '1', '1']","[79.6202314000002, 80.20433570000023, 80.58015909999995, 82.67628559999866, 82.98017029999937, 83.42819839999902]",1,6,# # # # # #,None,79.6202314000002,80.20433570000023,80.58015909999995,82.67628559999866,82.98017029999937,83.42819839999902,2.379914800001643,0.5841043000000354,0.37582339999971737,2.096126499998718,0.3038847000007081,0.44802809999964666
14,14,0.0,2,False,0.0,None,right,False,2,1,0,enc,0,0,1,[],[],1,6,1 2 3 4 3 1,4,0.0,0.0,0.0,0.0,0.0,0.0,0,0.0,0.0,0.0,0.0,0.0
15,15,2.3359699,2,True,0.5,acc,right,False,2,1,6,ret,1,10,1,"['1', '2', '3', '4', '3', '1']","[91.88428169999861, 92.49222579999878, 92.92411659999925, 93.34017309999945, 93.87616909999997, 94.22025159999976]",1,6,# # # # # #,None,91.88428169999861,92.49222579999878,92.92411659999925,93.34017309999945,93.87616909999997,94.22025159999976,1.956083299999591,0.607944100000168,0.431890800000474,0.41605650000019523,0.535996000000523,0.3440824999997858
16,0,0.0,3,False,0.0,None,right,False,2,1,0,enc,0,0,1,[],[],1,6,4 2 2 1 1 2,6,0.0,0.0,0.0,0.0,0.0,0.0,0,0.0,0.0,0.0,0.0,0.0
17,1,1.319781,3,True,0.5,acc,right,False,2,1,6,ret,1,10,1,"['4', '2', '2', '1', '1', '2']","[5.191186599999128, 5.479001800000333, 5.7109959999997955, 6.150992299999416, 6.32725980000032, 6.510967599999276]",1,6,# # # # # #,None,5.191186599999128,5.479001800000333,5.7109959999997955,6.150992299999416,6.32725980000032,6.510967599999276,NaN,0.2878152000012051,0.23199419999946258,0.43999629999962053,0.17626750000090396,0.18370779999895603
18,2,0.0,3,False,0.0,None,right,False,2,1,0,enc,0,0,1,[],[],1,6,3 3 2 2 3 3,6,0.0,0.0,0.0,0.0,0.0,0.0,0,0.0,0.0,0.0,0.0,0.0
19,3,3.0720063,3,True,0.5,acc,right,False,2,1,6,ret,1,10,1,"['3', '3', '2', '2', '3', '3']","[13.270975699999326, 13.518968200000018, 14.055169999999634, 15.247123900000588, 16.03107970000019, 16.34298200000012]",1,6,# # # # # #,None,13.270975699999326,13.518968200000018,14.055169999999634,15.247123900000588,16.03107970000019,16.34298200000012,0.26000810000005004,0.2479925000006915,0.5362017999996169,1.1919539000009536,0.7839557999996032,0.3119022999999288
20,4,0.0,2,False,0.0,None,right,False,2,1,0,enc,0,0,0,[],[],1,6,1 4 4 2 2 1,4,0.0,0.0,0.0,0.0,0.0,0.0,0,0.0,0.0,0.0,0.0,0.0
21,5,5.3678337,2,True,0.5,acc,right,False,2,1,6,ret,1,10,0,"['1', '2', '2', '4', '4', '1']","[25.855270300000484, 26.119180800000322, 28.119230500000413, 28.726951200000258, 31.007195000000138, 31.223104000000603]",1,6,# # # # # #,None,25.855270300000484,26.119180800000322,28.119230500000413,28.726951200000258,31.007195000000138,31.223104000000603,3.012288300000364,0.26391049999983807,2.0000497000000905,0.6077206999998452,2.28024379999988,0.2159090000004653
22,6,0.0,3,False,0.0,None,right,False,2,1,0,enc,0,0,0,[],[],1,6,2 3 3 2 4 1,6,0.0,0.0,0.0,0.0,0.0,0.0,0,0.0,0.0,0.0,0.0,0.0
23,7,3.0719042,3,True,0.5,acc,right,False,2,1,6,ret,1,10,0,"['1', '4', '2', '3', '3', '2']","[39.38303690000066, 39.847230400000626, 40.21487960000013, 42.023451700000805, 42.255196300000534, 42.454941100000724]",1,6,# # # # # #,None,39.38303690000066,39.847230400000626,40.21487960000013,42.023451700000805,42.255196300000534,42.454941100000724,1.659932900000058,0.46419349999996484,0.36764919999950507,1.8085721000006743,0.23174459999972896,0.19974480000018957
24,8,0.0,2,False,0.0,None,right,False,2,1,0,enc,0,0,0,[],[],1,6,4 3 2 1 3 4,4,0.0,0.0,0.0,0.0,0.0,0.0,0,0.0,0.0,0.0,0.0,0.0
25,9,4.415908,2,True,0.5,acc,right,True,2,1,4,ret,1,4,0,"['4', '3', '1', '2', '4', '3']","[53.09487970000009, 53.639201899999534, 55.27087179999944, 55.55085979999967, 57.07880230000046, 57.51078769999913]",1,6,# # # # # #,None,53.09487970000009,53.639201899999534,55.27087179999944,55.55085979999967,57.07880230000046,57.51078769999913,4.139938599999368,0.5443221999994421,1.6316698999999062,0.2799880000002304,1.5279425000007905,0.43198539999866625
26,10,0.0,2,False,0.0,None,right,False,2,1,0,enc,0,0,1,[],[],1,6,4 3 3 1 1 2,4,0.0,0.0,0.0,0.0,0.0,0.0,0,0.0,0.0,0.0,0.0,0.0
27,11,4.6642266,2,True,0.5,acc,right,True,2,1,4,ret,1,4,1,"['3', '3', '4', '1', '1', '2']","[66.68693249999887, 67.71875159999945, 69.70289279999815, 69.9347833999982, 71.23890569999821, 71.35115910000059]",1,6,# # # # # #,None,66.68693249999887,67.71875159999945,69.70289279999815,69.9347833999982,71.23890569999821,71.35115910000059,2.676144799999747,1.0318191000005754,1.984141199998703,0.23189060000004247,1.3041223000000173,0.11225340000237338
28,12,0.0,3,False,0.0,None,right,False,2,1,0,enc,0,0,0,[],[],1,6,2 3 4 2 2 1,6,0.0,0.0,0.0,0.0,0.0,0.0,0,0.0,0.0,0.0,0.0,0.0
29,13,2.9439616,3,True,0.5,acc,right,False,2,1,6,ret,1,10,0,"['1', '2', '2', '4', '3', '2']","[78.94279640000059, 79.25485909999952, 79.47088809999877, 81.37476340000103, 81.65486430000055, 81.88675799999874]",1,6,# # # # # #,None,78.94279640000059,79.25485909999952,79.47088809999877,81.37476340000103,81.65486430000055,81.88675799999874,1.0916373000000021,0.31206269999893266,0.21602899999925285,1.9038753000022552,0.2801008999995247,0.23189369999818155
30,14,0.0,2,False,0.0,None,right,False,2,1,0,enc,0,0,1,[],[],1,6,4 2 3 4 2 1,4,0.0,0.0,0.0,0.0,0.0,0.0,0,0.0,0.0,0.0,0.0,0.0
31,15,2.2880647,2,True,0.5,acc,right,False,2,1,6,ret,1,10,1,"['4', '2', '3', '4', '2', '1']","[91.18271780000032, 91.66269890000149, 92.03075960000024, 92.3748547999985, 93.25479169999926, 93.47078249999868]",1,6,# # # # # #,None,91.18271780000032,91.66269890000149,92.03075960000024,92.3748547999985,93.25479169999926,93.47078249999868,2.795959800001583,0.47998110000116867,0.36806069999875035,0.34409519999826443,0.8799369000007573,0.2159907999994175
32,16,0.0,2,False,0.0,None,right,False,2,1,0,enc,0,0,1,[],[],1,6,1 4 1 3 2 4,4,0.0,0.0,0.0,0.0,0.0,0.0,0,0.0,0.0,0.0,0.0,0.0
33,17,4.8158087,2,True,0.5,acc,right,True,2,1,5,ret,1,5,1,"['1', '4', '1', '3', '3', '4']","[102.2709253999983, 102.55086340000162, 102.87097819999872, 103.19071710000026, 104.04678230000172, 107.08673409999938]",1,6,# # # # # #,None,102.2709253999983,102.55086340000162,102.87097819999872,103.19071710000026,104.04678230000172,107.08673409999938,2.300142899999628,0.2799380000033125,0.3201147999970999,0.31973890000153915,0.856065200001467,3.0399517999976524
34,18,0.0,3,False,0.0,None,right,False,2,1,0,enc,0,0,0,[],[],1,6,2 3 3 3 3 4,6,0.0,0.0,0.0,0.0,0.0,0.0,0,0.0,0.0,0.0,0.0,0.0
35,19,2.0079763,3,True,0.5,acc,right,False,2,1,6,ret,1,10,0,"['4', '3', '3', '3', '3', '2']","[114.60675390000142, 115.09479950000059, 115.48683749999873, 116.04731809999976, 116.34289209999952, 116.61473020000085]",1,6,# # # # # #,None,114.60675390000142,115.09479950000059,115.48683749999873,116.04731809999976,116.34289209999952,116.61473020000085,1.0200198000020464,0.4880455999991682,0.3920379999981378,0.5604806000010285,0.2955739999997604,0.27183810000133235
36,20,0.0,3,False,0.0,None,right,False,2,1,0,enc,0,0,1,[],[],1,6,1 1 3 2 2 4,6,0.0,0.0,0.0,0.0,0.0,0.0,0,0.0,0.0,0.0,0.0,0.0
37,21,2.1359932,3,True,0.5,acc,right,False,2,1,6,ret,1,10,1,"['1', '1', '3', '2', '2', '4']","[123.31074780000017, 123.71870939999826, 124.07081220000146, 124.67134189999888, 125.03070370000023, 125.44674100000157]",1,6,# # # # # #,None,123.31074780000017,123.71870939999826,124.07081220000146,124.67134189999888,125.03070370000023,125.44674100000157,0.19601759999932256,0.4079615999980888,0.3521028000031947,0.6005296999974234,0.3593618000013521,0.4160373000013351
38,22,0.0,2,False,0.0,None,right,False,2,1,0,enc,0,0,0,[],[],1,6,4 1 1 1 4 4,4,0.0,0.0,0.0,0.0,0.0,0.0,0,0.0,0.0,0.0,0.0,0.0
39,23,2.7200142,2,True,0.5,acc,right,False,2,1,6,ret,1,10,0,"['4', '4', '1', '1', '1', '4']","[134.91068540000015, 135.1347396000001, 136.03887529999884, 136.23882849999973, 137.3907061000009, 137.6306996000003]",1,6,# # # # # #,None,134.91068540000015,135.1347396000001,136.03887529999884,136.23882849999973,137.3907061000009,137.6306996000003,2.9639443999985815,0.22405419999995502,0.9041356999987329,0.19995320000089123,1.1518776000011712,0.23999349999940023
40,0,0.0,3,False,0.0,None,right,False,2,1,0,enc,0,0,1,[],[],2,6,3 2 2 3 2 3,6,0.0,0.0,0.0,0.0,0.0,0.0,0,0.0,0.0,0.0,0.0,0.0
41,1,2.0719457,3,True,0.5,acc,right,False,2,1,6,ret,1,10,1,"['3', '2', '2', '3', '2', '3']","[5.114952100000664, 6.1229299000005994, 6.346973899999284, 6.770902899999783, 6.9869612000002235, 7.186897799998405]",2,6,# # # # # #,None,5.114952100000664,6.1229299000005994,6.346973899999284,6.770902899999783,6.9869612000002235,7.186897799998405,NaN,1.007977799999935,0.22404399999868474,0.4239290000004985,0.2160583000004408,0.19993659999818192
42,2,0.0,2,False,0.0,None,right,False,2,1,0,enc,0,0,1,[],[],2,6,2 4 4 4 4 1,4,0.0,0.0,0.0,0.0,0.0,0.0,0,0.0,0.0,0.0,0.0,0.0
43,3,1.4561168,2,True,0.5,acc,right,False,2,1,6,ret,1,10,1,"['2', '4', '4', '4', '4', '1']","[16.042915999998513, 16.458995400000276, 16.89896890000091, 17.131042299999535, 17.346949399998266, 17.49903279999853]",2,6,# # # # # #,None,16.042915999998513,16.458995400000276,16.89896890000091,17.131042299999535,17.346949399998266,17.49903279999853,2.3560182000001078,0.41607940000176313,0.43997350000063307,0.23207339999862597,0.2159070999987307,0.1520834000002651
44,4,0.0,3,False,0.0,None,right,False,2,1,0,enc,0,0,1,[],[],2,6,1 4 1 4 4 3,6,0.0,0.0,0.0,0.0,0.0,0.0,0,0.0,0.0,0.0,0.0,0.0
45,5,3.3357084,3,True,0.5,acc,right,False,2,1,6,ret,1,10,1,"['1', '4', '1', '4', '4', '3']","[24.41927729999952, 25.411065500000404, 26.12289370000144, 27.306999399999768, 27.514959299998736, 27.75498570000127]",2,6,# # # # # #,None,24.41927729999952,25.411065500000404,26.12289370000144,27.306999399999768,27.514959299998736,27.75498570000127,0.42024450000099023,0.9917882000008831,0.7118282000010367,1.1841056999983266,0.20795989999896847,0.2400264000025345
46,6,0.0,3,False,0.0,None,right,False,2,1,0,enc,0,0,0,[],[],2,6,1 3 1 3 1 3,6,0.0,0.0,0.0,0.0,0.0,0.0,0,0.0,0.0,0.0,0.0,0.0
47,7,5.0079941,3,True,0.5,acc,right,False,2,1,6,ret,1,10,0,"['3', '1', '3', '1', '3', '1']","[35.194919199999276, 35.434933500000625, 35.67493810000087, 39.83488379999835, 40.04292219999843, 40.202913299999636]",2,6,# # # # # #,None,35.194919199999276,35.434933500000625,35.67493810000087,39.83488379999835,40.04292219999843,40.202913299999636,0.9399334999980056,0.2400143000013486,0.2400046000002476,4.159945699997479,0.20803840000007767,0.1599911000012071
48,8,0.0,2,False,0.0,None,right,False,2,1,0,enc,0,0,0,[],[],2,6,2 1 4 4 4 2,4,0.0,0.0,0.0,0.0,0.0,0.0,0,0.0,0.0,0.0,0.0,0.0
49,9,2.8240708,2,True,0.5,acc,right,False,2,1,6,ret,1,10,0,"['2', '4', '4', '4', '1', '2']","[49.818963599998824, 50.090982599998824, 51.00291239999933, 51.2911110999994, 52.52300660000037, 52.64303440000003]",2,6,# # # # # #,None,49.818963599998824,50.090982599998824,51.00291239999933,51.2911110999994,52.52300660000037,52.64303440000003,3.1160502999991877,0.27201900000000023,0.9119298000005074,0.2881987000000663,1.2318955000009737,0.12002779999966151
50,10,0.0,3,False,0.0,None,right,False,2,1,0,enc,0,0,0,[],[],2,6,3 3 4 1 2 3,6,0.0,0.0,0.0,0.0,0.0,0.0,0,0.0,0.0,0.0,0.0,0.0
51,11,3.3839034,3,True,0.5,acc,right,False,2,1,6,ret,1,10,0,"['3', '2', '1', '4', '3', '3']","[59.81107070000144, 60.03485219999857, 60.25110280000081, 62.730961199999, 62.994904099999985, 63.194974099998944]",2,6,# # # # # #,None,59.81107070000144,60.03485219999857,60.25110280000081,62.730961199999,62.994904099999985,63.194974099998944,0.668036300001404,0.2237814999971306,0.2162506000022404,2.479858399998193,0.2639429000009841,0.20006999999895925
52,12,0.0,2,False,0.0,None,right,False,2,1,0,enc,0,0,0,[],[],2,6,4 2 2 2 3 1,4,0.0,0.0,0.0,0.0,0.0,0.0,0,0.0,0.0,0.0,0.0,0.0
53,13,2.9999672,2,True,0.5,acc,right,False,2,1,6,ret,1,10,0,"['1', '3', '2', '2', '2', '4']","[72.79489620000095, 72.98690309999802, 74.09890209999867, 74.28298509999877, 75.6110179999996, 75.79486339999858]",2,6,# # # # # #,None,72.79489620000095,72.98690309999802,74.09890209999867,74.28298509999877,75.6110179999996,75.79486339999858,3.0999221000020043,0.1920068999970681,1.111999000000651,0.18408300000010058,1.328032900000835,0.18384539999897243
54,14,0.0,3,False,0.0,None,right,False,2,1,0,enc,0,0,1,[],[],2,6,3 2 2 1 1 4,6,0.0,0.0,0.0,0.0,0.0,0.0,0,0.0,0.0,0.0,0.0,0.0
55,15,2.1199462,3,True,0.5,acc,right,False,2,1,6,ret,1,10,1,"['3', '2', '2', '1', '1', '4']","[82.66685670000152, 82.93893899999966, 83.20294659999854, 84.17992389999927, 84.45889410000018, 84.78680289999829]",2,6,# # # # # #,None,82.66685670000152,82.93893899999966,83.20294659999854,84.17992389999927,84.45889410000018,84.78680289999829,0.3719933000029414,0.2720822999981465,0.2640075999988767,0.9769773000007262,0.2789702000009129,0.32790879999811295
56,16,0.0,2,False,0.0,None,right,False,2,1,0,enc,0,0,0,[],[],2,6,4 3 2 1 2 2,4,0.0,0.0,0.0,0.0,0.0,0.0,0,0.0,0.0,0.0,0.0,0.0
57,17,4.6801679,2,True,0.5,acc,right,False,2,1,6,ret,1,10,0,"['2', '2', '1', '2', '3', '4']","[93.67490710000129, 93.8508440000005, 95.47488349999912, 95.88285019999967, 98.08281970000098, 98.35507499999949]",2,6,# # # # # #,None,93.67490710000129,93.8508440000005,95.47488349999912,95.88285019999967,98.08281970000098,98.35507499999949,2.3881042000029993,0.1759368999992148,1.6240394999986165,0.4079667000005429,2.199969500001316,0.2722552999985055
58,18,0.0,2,False,0.0,None,right,False,2,1,0,enc,0,0,1,[],[],2,6,3 1 4 4 2 3,4,0.0,0.0,0.0,0.0,0.0,0.0,0,0.0,0.0,0.0,0.0,0.0
59,19,1.6241101,2,True,0.5,acc,right,False,2,1,6,ret,1,10,1,"['3', '1', '4', '4', '2', '3']","[107.2748791999984, 107.49889769999936, 108.0043517999984, 108.24281390000033, 108.76276629999848, 108.89898929999981]",2,6,# # # # # #,None,107.2748791999984,107.49889769999936,108.0043517999984,108.24281390000033,108.76276629999848,108.89898929999981,2.4198041999989073,0.22401850000096601,0.5054540999990422,0.23846210000192514,0.5199523999981466,0.1362230000013369
60,20,0.0,3,False,0.0,None,right,False,2,1,0,enc,0,0,0,[],[],2,6,1 1 4 4 3 2,6,0.0,0.0,0.0,0.0,0.0,0.0,0,0.0,0.0,0.0,0.0,0.0
61,21,2.9919672,3,True,0.5,acc,right,False,2,1,6,ret,1,10,0,"['2', '3', '4', '4', '1', '1']","[118.60286669999914, 118.9068331999988, 119.21081449999838, 121.1308613000001, 121.4029303999996, 121.59483389999878]",2,6,# # # # # #,None,118.60286669999914,118.9068331999988,119.21081449999838,121.1308613000001,121.4029303999996,121.59483389999878,3.203877399999328,0.3039664999996603,0.30398129999957746,1.9200468000017281,0.2720690999994986,0.1919034999991709
62,22,0.0,2,False,0.0,None,right,False,2,1,0,enc,0,0,1,[],[],2,6,4 2 1 2 4 1,4,0.0,0.0,0.0,0.0,0.0,0.0,0,0.0,0.0,0.0,0.0,0.0
63,23,1.7760392,2,True,0.5,acc,right,False,2,1,6,ret,1,10,1,"['4', '2', '1', '2', '4', '1']","[130.56277649999902, 130.90682229999948, 131.1947684000006, 131.45084529999804, 132.0828393999982, 132.33881570000085]",2,6,# # # # # #,None,130.56277649999902,130.90682229999948,131.1947684000006,131.45084529999804,132.0828393999982,132.33881570000085,2.4679426000002422,0.34404580000045826,0.2879461000011361,0.25607689999742433,0.6319941000001563,0.2559763000026578
64,0,0.0,2,False,0.0,None,right,False,2,1,0,enc,0,0,1,[],[],3,6,1 3 3 1 2 3,4,0.0,0.0,0.0,0.0,0.0,0.0,0,0.0,0.0,0.0,0.0,0.0
65,1,1.2879779,2,True,0.5,acc,right,False,2,1,6,ret,1,10,1,"['1', '3', '3', '1', '2', '3']","[7.012867099998402, 7.244927699997788, 7.812991699996928, 8.028775999999198, 8.220848999997543, 8.300844999997935]",3,6,# # # # # #,None,7.012867099998402,7.244927699997788,7.812991699996928,8.028775999999198,8.220848999997543,8.300844999997935,NaN,0.23206059999938589,0.5680639999991399,0.21578430000226945,0.19207299999834504,0.07999600000039209
66,2,0.0,3,False,0.0,None,right,False,2,1,0,enc,0,0,0,[],[],3,6,2 3 1 2 2 1,6,0.0,0.0,0.0,0.0,0.0,0.0,0,0.0,0.0,0.0,0.0,0.0
67,3,4.2480205,3,True,0.5,acc,right,False,2,1,6,ret,1,10,0,"['1', '2', '2', '1', '3', '2']","[16.060865999999805, 16.276721700000053, 16.4850071999972, 19.92481939999925, 20.1408064999996, 20.308886499999062]",3,6,# # # # # #,None,16.060865999999805,16.276721700000053,16.4850071999972,19.92481939999925,20.1408064999996,20.308886499999062,1.2600210000018706,0.21585570000024745,0.20828549999714596,3.439812200002052,0.2159871000003477,0.16807999999946333
68,4,0.0,3,False,0.0,None,right,False,2,1,0,enc,0,0,1,[],[],3,6,4 1 3 2 2 1,6,0.0,0.0,0.0,0.0,0.0,0.0,0,0.0,0.0,0.0,0.0,0.0
69,5,1.2562157,3,True,0.5,acc,right,False,2,1,6,ret,1,10,1,"['4', '1', '3', '2', '2', '1']","[27.132837799999834, 27.3727321999977, 27.628746699996555, 27.908919399997103, 28.076832699996885, 28.389053499999136]",3,6,# # # # # #,None,27.132837799999834,27.3727321999977,27.628746699996555,27.908919399997103,28.076832699996885,28.389053499999136,0.3239513000007719,0.23989439999786555,0.25601449999885517,0.2801727000005485,0.16791329999978188,0.31222080000225105
70,6,0.0,2,False,0.0,None,right,False,2,1,0,enc,0,0,0,[],[],3,6,3 4 4 3 4 1,4,0.0,0.0,0.0,0.0,0.0,0.0,0,0.0,0.0,0.0,0.0,0.0
71,7,7.3036655,2,True,0.5,acc,right,False,2,1,6,ret,1,10,0,"['1', '4', '3', '4', '4', '3']","[37.340974099999585, 37.700908299997536, 41.22875889999705, 41.61271439999837, 44.46080059999804, 44.64463959999921]",3,6,# # # # # #,None,37.340974099999585,37.700908299997536,41.22875889999705,41.61271439999837,44.46080059999804,44.64463959999921,2.4519206000004488,0.3599341999979515,3.5278505999995105,0.3839555000013206,2.8480861999996705,0.18383900000117137
72,8,0.0,3,False,0.0,None,right,False,2,1,0,enc,0,0,1,[],[],3,6,1 2 2 4 4 3,6,0.0,0.0,0.0,0.0,0.0,0.0,0,0.0,0.0,0.0,0.0,0.0
73,9,1.4741529,3,True,0.5,acc,right,False,2,1,6,ret,1,10,1,"['1', '2', '2', '4', '4', '3']","[51.564754099999845, 51.8048112999968, 52.00489729999754, 52.58080709999922, 52.78888519999964, 53.03890699999829]",3,6,# # # # # #,None,51.564754099999845,51.8048112999968,52.00489729999754,52.58080709999922,52.78888519999964,53.03890699999829,0.4201145000006363,0.2400571999969543,0.20008600000073784,0.575909800001682,0.20807810000042082,0.25002179999864893
74,10,0.0,2,False,0.0,None,right,False,2,1,0,enc,0,0,0,[],[],3,6,4 4 3 2 3 3,4,0.0,0.0,0.0,0.0,0.0,0.0,0,0.0,0.0,0.0,0.0,0.0
75,11,2.1677681,2,True,0.5,acc,right,False,2,1,6,ret,1,10,0,"['3', '3', '2', '3', '4', '4']","[61.30895669999882, 61.51674369999819, 62.54870779999692, 62.70090919999711, 63.29275229999985, 63.47672479999892]",3,6,# # # # # #,None,61.30895669999882,61.51674369999819,62.54870779999692,62.70090919999711,63.29275229999985,63.47672479999892,1.770049700000527,0.2077869999993709,1.0319640999987314,0.15220140000019455,0.591843100002734,0.18397249999907217
76,12,0.0,3,False,0.0,None,right,False,2,1,0,enc,0,0,0,[],[],3,6,2 4 3 2 2 4,6,0.0,0.0,0.0,0.0,0.0,0.0,0,0.0,0.0,0.0,0.0,0.0
77,13,3.3680362,3,True,0.5,acc,right,True,2,1,4,ret,1,4,0,"['4', '2', '2', '4', '3', '2']","[72.69260619999841, 73.00483739999981, 73.30882399999973, 75.46869650000008, 75.71667909999815, 76.06064239999978]",3,6,# # # # # #,None,72.69260619999841,73.00483739999981,73.30882399999973,75.46869650000008,75.71667909999815,76.06064239999978,2.715881399999489,0.31223120000140625,0.3039865999999165,2.159872500000347,0.2479825999980676,0.3439633000016329
78,14,0.0,2,False,0.0,None,right,False,2,1,0,enc,0,0,0,[],[],3,6,2 3 4 4 1 2,4,0.0,0.0,0.0,0.0,0.0,0.0,0,0.0,0.0,0.0,0.0,0.0
79,15,4.5836578,2,True,0.5,acc,right,True,2,1,2,ret,1,2,0,"['2', '1', '3', '2', '4', '4']","[85.96499939999921, 86.05360889999793, 87.73267279999709, 87.79670039999837, 88.57292629999938, 90.54865719999725]",3,6,# # # # # #,None,85.96499939999921,86.05360889999793,87.73267279999709,87.79670039999837,88.57292629999938,90.54865719999725,3.404356999999436,0.08860949999871082,1.6790638999991643,0.06402760000128183,0.776225900001009,1.9757308999978704
80,16,0.0,3,False,0.0,None,right,False,2,1,0,enc,0,0,1,[],[],3,6,2 1 1 2 4 1,6,0.0,0.0,0.0,0.0,0.0,0.0,0,0.0,0.0,0.0,0.0,0.0
81,17,1.535946,3,True,0.5,acc,right,False,2,1,6,ret,1,10,1,"['2', '1', '1', '2', '4', '1']","[97.69283809999979, 98.02062749999823, 98.34067639999921, 98.86873979999655, 99.06868699999904, 99.22878409999976]",3,6,# # # # # #,None,97.69283809999979,98.02062749999823,98.34067639999921,98.86873979999655,99.06868699999904,99.22878409999976,0.6441809000025387,0.32778939999843715,0.32004890000098385,0.5280633999973361,0.199947200002498,0.1600971000007121
82,18,0.0,3,False,0.0,None,right,False,2,1,0,enc,0,0,0,[],[],3,6,3 2 1 1 3 2,6,0.0,0.0,0.0,0.0,0.0,0.0,0,0.0,0.0,0.0,0.0,0.0
83,19,6.0480235,3,True,0.5,acc,right,True,2,1,5,ret,1,5,0,"['2', '2', '1', '1', '2', '3']","[110.30065789999935, 110.99680279999666, 113.34872339999856, 115.70097929999974, 115.99655359999815, 116.3486813999989]",3,6,# # # # # #,None,110.30065789999935,110.99680279999666,113.34872339999856,115.70097929999974,115.99655359999815,116.3486813999989,4.571873799999594,0.6961448999973072,2.351920600001904,2.3522559000011825,0.2955742999984068,0.3521278000007442
84,20,0.0,2,False,0.0,None,right,False,2,1,0,enc,0,0,1,[],[],3,6,1 4 1 4 2 1,4,0.0,0.0,0.0,0.0,0.0,0.0,0,0.0,0.0,0.0,0.0,0.0
85,21,1.2561154,2,True,0.5,acc,right,False,2,1,6,ret,1,10,1,"['1', '4', '1', '4', '2', '1']","[124.85258229999818, 125.188576499997, 125.44476020000002, 125.68457659999694, 125.94070289999945, 126.10869769999772]",3,6,# # # # # #,None,124.85258229999818,125.188576499997,125.44476020000002,125.68457659999694,125.94070289999945,126.10869769999772,2.0039008999992802,0.3359941999988223,0.25618370000302093,0.2398163999969256,0.25612630000250647,0.16799479999826872
86,22,0.0,2,False,0.0,None,right,False,2,1,0,enc,0,0,1,[],[],3,6,1 3 2 1 1 3,4,0.0,0.0,0.0,0.0,0.0,0.0,0,0.0,0.0,0.0,0.0,0.0
87,23,3.143821,2,True,0.5,acc,right,True,2,1,5,ret,1,5,1,"['1', '4', '2', '1', '1', '3']","[134.43679339999653, 134.75661729999774, 135.18076329999894, 135.98073779999686, 137.42074699999648, 137.580614399998]",3,6,# # # # # #,None,134.43679339999653,134.75661729999774,135.18076329999894,135.98073779999686,137.42074699999648,137.580614399998,1.828095699998812,0.31982390000121086,0.4241460000012012,0.7999744999979157,1.440009199999622,0.15986740000153077
88,0,0.0,2,False,0.0,None,right,False,2,1,0,enc,0,0,1,[],[],4,6,4 4 1 3 2 2,4,0.0,0.0,0.0,0.0,0.0,0.0,0,0.0,0.0,0.0,0.0,0.0
89,1,25.1217841,2,True,0.5,acc,right,True,2,1,5,ret,1,5,1,"['m', '4', '1', '3', '2', '2']","[-13.360416899999109, 9.345501499999955, 9.961325399999623, 10.10539069999868, 11.609328099999402, 11.761367200000677]",4,6,# # # # # #,None,-13.360416899999109,9.345501499999955,9.961325399999623,10.10539069999868,11.609328099999402,11.761367200000677,NaN,22.705918399999064,0.6158238999996684,0.14406529999905615,1.5039374000007228,0.15203910000127507
90,2,0.0,2,False,0.0,None,right,False,2,1,0,enc,0,0,0,[],[],4,6,3 2 1 3 4 3,4,0.0,0.0,0.0,0.0,0.0,0.0,0,0.0,0.0,0.0,0.0,0.0
91,3,3.6559229,2,True,0.5,acc,right,False,2,1,6,ret,1,10,0,"['3', '4', '3', '1', '2', '3']","[22.089348800000153, 22.489270499998383, 24.04131259999849, 24.185405000000173, 25.641370299999835, 25.74527169999783]",4,6,# # # # # #,None,22.089348800000153,22.489270499998383,24.04131259999849,24.185405000000173,25.641370299999835,25.74527169999783,3.8279815999994753,0.3999216999982309,1.552042100000108,0.1440924000016821,1.4559652999996615,0.1039013999979943
92,4,0.0,3,False,0.0,None,right,False,2,1,0,enc,0,0,0,[],[],4,6,2 3 2 3 1 2,6,0.0,0.0,0.0,0.0,0.0,0.0,0,0.0,0.0,0.0,0.0,0.0
93,5,5.2878123,3,True,0.5,acc,right,True,2,1,5,ret,1,5,0,"['1', '1', '3', '2', '3', '2']","[32.761509100000694, 35.35338309999861, 35.5534004000001, 37.60951959999875, 37.83343120000063, 38.04932139999801]",4,6,# # # # # #,None,32.761509100000694,35.35338309999861,35.5534004000001,37.60951959999875,37.83343120000063,38.04932139999801,0.5162374000028649,2.5918739999979152,0.2000173000014911,2.0561191999986477,0.22391160000188393,0.21589019999737502
94,6,0.0,3,False,0.0,None,right,False,2,1,0,enc,0,0,1,[],[],4,6,4 4 4 2 2 1,6,0.0,0.0,0.0,0.0,0.0,0.0,0,0.0,0.0,0.0,0.0,0.0
95,7,1.3759537,3,True,0.5,acc,right,False,2,1,6,ret,1,10,1,"['4', '4', '4', '2', '2', '1']","[44.417294399998354, 44.625276399998256, 44.889375499999005, 45.37724969999908, 45.57727220000015, 45.79324809999889]",4,6,# # # # # #,None,44.417294399998354,44.625276399998256,44.889375499999005,45.37724969999908,45.57727220000015,45.79324809999889,-0.13202699999965262,0.20798199999990175,0.2640991000007489,0.4878742000000784,0.2000225000010687,0.2159758999987389
96,8,0.0,2,False,0.0,None,right,False,2,1,0,enc,0,0,1,[],[],4,6,3 1 4 3 4 1,4,0.0,0.0,0.0,0.0,0.0,0.0,0,0.0,0.0,0.0,0.0,0.0
97,9,1.856037,2,True,0.5,acc,right,True,2,1,5,ret,1,5,1,"['3', '1', '4', '3', '3', '1']","[54.433303999998316, 54.77728120000029, 55.33727519999957, 55.777233000000706, 56.12934239999959, 56.289340999999695]",4,6,# # # # # #,None,54.433303999998316,54.77728120000029,55.33727519999957,55.777233000000706,56.12934239999959,56.289340999999695,2.1400558999994246,0.34397720000197296,0.5599939999992785,0.4399578000011388,0.3521093999988807,0.15999860000010813
98,10,0.0,3,False,0.0,None,right,False,2,1,0,enc,0,0,1,[],[],4,6,3 1 4 2 4 3,6,0.0,0.0,0.0,0.0,0.0,0.0,0,0.0,0.0,0.0,0.0,0.0
99,11,3.4481465,3,True,0.5,acc,right,False,2,1,6,ret,1,10,1,"['3', '1', '4', '2', '4', '3']","[63.28124929999831, 63.96126390000063, 64.38561389999813, 65.6253579999975, 66.37741679999817, 66.72939580000093]",4,6,# # # # # #,None,63.28124929999831,63.96126390000063,64.38561389999813,65.6253579999975,66.37741679999817,66.72939580000093,0.4919082999986131,0.6800146000023233,0.4243499999975029,1.2397440999993705,0.7520588000006683,0.35197900000275695
100,12,0.0,2,False,0.0,None,right,False,2,1,0,enc,0,0,0,[],[],4,6,2 1 4 1 4 4,4,0.0,0.0,0.0,0.0,0.0,0.0,0,0.0,0.0,0.0,0.0,0.0
101,13,15.4623529,2,True,0.5,acc,right,True,2,1,5,ret,1,5,0,"['3', '4', '1', '4', '1', '2']","[68.27500370000052, 78.45730840000033, 82.8572213999978, 83.22545339999851, 83.59332920000088, 83.73735659999875]",4,6,# # # # # #,None,68.27500370000052,78.45730840000033,82.8572213999978,83.22545339999851,83.59332920000088,83.73735659999875,-4.954392100000405,10.182304699999804,4.399912999997468,0.36823200000071665,0.3678758000023663,0.14402739999786718
102,14,0.0,3,False,0.0,None,right,False,2,1,0,enc,0,0,0,[],[],4,6,4 4 4 2 2 3,6,0.0,0.0,0.0,0.0,0.0,0.0,0,0.0,0.0,0.0,0.0,0.0
103,15,2.0320668,3,True,0.5,acc,right,False,2,1,6,ret,1,10,0,"['3', '2', '2', '4', '4', '4']","[92.08124669999961, 92.3772542000006, 92.68123510000078, 93.71322220000002, 93.92933319999793, 94.11331349999818]",4,6,# # # # # #,None,92.08124669999961,92.3772542000006,92.68123510000078,93.71322220000002,93.92933319999793,94.11331349999818,1.8438901000008627,0.2960075000009965,0.30398090000016964,1.0319870999992418,0.21611099999790895,0.18398030000025756
104,16,0.0,2,False,0.0,None,right,False,2,1,0,enc,0,0,1,[],[],4,6,4 2 3 2 4 3,4,0.0,0.0,0.0,0.0,0.0,0.0,0,0.0,0.0,0.0,0.0,0.0
105,17,1.7279261,2,True,0.5,acc,right,True,2,1,5,ret,1,5,1,"['4', '2', '3', '2', '3', '3']","[102.9772759999978, 103.26535169999988, 103.52124220000042, 103.87324349999835, 104.53717069999766, 104.70520209999813]",4,6,# # # # # #,None,102.9772759999978,103.26535169999988,103.52124220000042,103.87324349999835,104.53717069999766,104.70520209999813,2.363962499999616,0.28807570000208216,0.2558905000005325,0.35200129999793717,0.663927199999307,0.16803140000047279
106,18,0.0,2,False,0.0,None,right,False,2,1,0,enc,0,0,0,[],[],4,6,4 4 2 3 3 4,4,0.0,0.0,0.0,0.0,0.0,0.0,0,0.0,0.0,0.0,0.0,0.0
107,19,4.4799411,2,True,0.5,acc,right,True,2,1,5,ret,1,5,0,"['4', '3', '3', '2', '2', '4']","[114.36927089999881, 114.71320990000095, 115.2732032999993, 115.57719889999862, 118.70520269999906, 118.84921200000099]",4,6,# # # # # #,None,114.36927089999881,114.71320990000095,115.2732032999993,115.57719889999862,118.70520269999906,118.84921200000099,3.1640688000006776,0.3439390000021376,0.5599933999983477,0.30399559999932535,3.1280038000004424,0.14400930000192602
108,20,0.0,3,False,0.0,None,right,False,2,1,0,enc,0,0,1,[],[],4,6,3 3 3 1 1 2,6,0.0,0.0,0.0,0.0,0.0,0.0,0,0.0,0.0,0.0,0.0,0.0
109,21,0.8965269,3,True,0.5,acc,right,False,2,1,6,ret,1,10,1,"['3', '3', '3', '1', '1', '2']","[125.54521789999853, 125.75318960000004, 125.92919419999816, 126.2252645999979, 126.36120739999751, 126.44174479999856]",4,6,# # # # # #,None,125.54521789999853,125.75318960000004,125.92919419999816,126.2252645999979,126.36120739999751,126.44174479999856,0.19600589999754447,0.207971700001508,0.176004599998123,0.29607039999973495,0.13594279999961145,0.08053740000104881
110,22,0.0,3,False,0.0,None,right,False,2,1,0,enc,0,0,0,[],[],4,6,1 4 3 2 2 1,6,0.0,0.0,0.0,0.0,0.0,0.0,0,0.0,0.0,0.0,0.0,0.0
111,23,2.6320634,3,True,0.5,acc,right,True,2,1,5,ret,1,5,0,"['1', '2', '2', '3', '3', '1']","[134.00908189999973, 134.23322279999775, 134.44918830000097, 136.3212410999986, 136.4972114000011, 136.64114530000006]",4,6,# # # # # #,None,134.00908189999973,134.23322279999775,134.44918830000097,136.3212410999986,136.4972114000011,136.64114530000006,1.0673371000011684,0.22414089999801945,0.21596550000322168,1.8720527999976184,0.17597030000251834,0.1439338999989559
112,0,0.0,3,False,0.0,None,right,False,2,1,0,enc,0,0,1,[],[],5,6,4 3 1 1 1 1,6,0.0,0.0,0.0,0.0,0.0,0.0,0,0.0,0.0,0.0,0.0,0.0
113,1,1.1919562,3,True,0.5,acc,right,False,2,1,6,ret,1,10,1,"['4', '3', '1', '1', '1', '1']","[4.743766499999765, 5.032261100001051, 5.279777600000671, 5.4717493999996805, 5.623765100001037, 5.935722700000042]",5,6,# # # # # #,None,4.743766499999765,5.032261100001051,5.279777600000671,5.4717493999996805,5.623765100001037,5.935722700000042,NaN,0.288494600001286,0.24751649999961955,0.19197179999900982,0.1520157000013569,0.31195759999900474
114,2,0.0,3,False,0.0,None,right,False,2,1,0,enc,0,0,1,[],[],5,6,2 4 2 3 2 4,6,0.0,0.0,0.0,0.0,0.0,0.0,0,0.0,0.0,0.0,0.0,0.0
115,3,1.879962,3,True,0.5,acc,right,False,2,1,6,ret,1,10,1,"['2', '4', '2', '3', '2', '4']","[12.959774700000708, 13.207812799999374, 13.447754199998599, 14.311841200000345, 14.631736899998941, 14.839736699999776]",5,6,# # # # # #,None,12.959774700000708,13.207812799999374,13.447754199998599,14.311841200000345,14.631736899998941,14.839736699999776,0.5240520000006654,0.24803809999866644,0.2399413999992248,0.8640870000017458,0.3198956999985967,0.2079998000008345
116,4,0.0,2,False,0.0,None,right,False,2,1,0,enc,0,0,1,[],[],5,6,4 3 3 2 2 2,4,0.0,0.0,0.0,0.0,0.0,0.0,0,0.0,0.0,0.0,0.0,0.0
117,5,2.520042,2,True,0.5,acc,right,True,2,1,4,ret,1,4,1,"['4', '3', '2', '3', '2', '2']","[24.407713699998567, 24.86392049999995, 25.863735999999335, 26.087851500000397, 26.783892799998284, 26.92775569999867]",5,6,# # # # # #,None,24.407713699998567,24.86392049999995,25.863735999999335,26.087851500000397,26.783892799998284,26.92775569999867,3.067976999998791,0.45620680000138236,0.9998154999993858,0.22411550000106217,0.6960412999978871,0.1438629000003857
118,6,0.0,2,False,0.0,None,right,False,2,1,0,enc,0,0,1,[],[],5,6,2 3 1 3 2 3,4,0.0,0.0,0.0,0.0,0.0,0.0,0,0.0,0.0,0.0,0.0,0.0
119,7,1.3359736,2,True,0.5,acc,right,True,2,1,4,ret,1,4,1,"['2', '4', '1', '3', '2', '4']","[35.78379230000064, 36.04802109999946, 36.31979330000104, 36.56761919999917, 36.79988349999985, 37.11976589999904]",5,6,# # # # # #,None,35.78379230000064,36.04802109999946,36.31979330000104,36.56761919999917,36.79988349999985,37.11976589999904,2.3560366000019712,0.26422879999881843,0.2717722000015783,0.24782589999813354,0.2322643000006792,0.31988239999918733
120,8,0.0,2,False,0.0,None,right,False,2,1,0,enc,0,0,0,[],[],5,6,3 2 3 1 3 4,4,0.0,0.0,0.0,0.0,0.0,0.0,0,0.0,0.0,0.0,0.0,0.0
121,9,2.9684982,2,True,0.5,acc,right,True,2,1,4,ret,1,4,0,"['4', '3', '2', '3', '1', '3']","[46.56770139999935, 47.039676399999735, 48.7996553999983, 49.032167199999094, 49.4396897000006, 49.536199599999236]",5,6,# # # # # #,None,46.56770139999935,47.039676399999735,48.7996553999983,49.032167199999094,49.4396897000006,49.536199599999236,2.9479355000003125,0.47197500000038417,1.759978999998566,0.2325118000007933,0.40752250000150525,0.09650989999863668
122,10,0.0,3,False,0.0,None,right,False,2,1,0,enc,0,0,0,[],[],5,6,1 3 1 4 1 1,6,0.0,0.0,0.0,0.0,0.0,0.0,0,0.0,0.0,0.0,0.0,0.0
123,11,2.3360474,3,True,0.5,acc,right,False,2,1,6,ret,1,10,0,"['1', '1', '4', '1', '3', '1']","[58.735814600000595, 59.1119097999981, 59.44787929999802, 60.736160599997675, 60.97577589999855, 61.07186200000069]",5,6,# # # # # #,None,58.735814600000595,59.1119097999981,59.44787929999802,60.736160599997675,60.97577589999855,61.07186200000069,2.6996150000013586,0.37609519999750773,0.3359694999999192,1.2882812999996531,0.23961530000087805,0.09608610000213957
124,12,0.0,3,False,0.0,None,right,False,2,1,0,enc,0,0,0,[],[],5,6,3 3 4 4 1 1,6,0.0,0.0,0.0,0.0,0.0,0.0,0,0.0,0.0,0.0,0.0,0.0
125,13,6.0795579,3,True,0.5,acc,right,True,2,1,2,ret,1,2,0,"['1', '1', '1', '2', '1', '1']","[68.76023789999817, 69.11174089999986, 69.45589240000118, 73.32788009999786, 74.5119096999988, 74.83979579999868]",5,6,# # # # # #,None,68.76023789999817,69.11174089999986,69.45589240000118,73.32788009999786,74.5119096999988,74.83979579999868,1.1883758999974816,0.351503000001685,0.3441515000013169,3.87198769999668,1.1840296000009403,0.32788609999988694
126,14,0.0,2,False,0.0,None,right,False,2,1,0,enc,0,0,0,[],[],5,6,1 4 1 2 4 4,4,0.0,0.0,0.0,0.0,0.0,0.0,0,0.0,0.0,0.0,0.0,0.0
127,15,5.5916851,2,True,0.5,acc,right,True,2,1,4,ret,1,4,0,"['4', '4', '1', '2', '4', '1']","[83.58430579999913, 83.783948100001, 85.76003739999942, 85.83979320000071, 89.13598859999911, 89.1759908999993]",5,6,# # # # # #,None,83.58430579999913,83.783948100001,85.76003739999942,85.83979320000071,89.13598859999911,89.1759908999993,2.244510000000446,0.19964230000186944,1.9760892999984208,0.07975580000129412,3.296195399998396,0.040002300000196556
128,16,0.0,2,False,0.0,None,right,False,2,1,0,enc,0,0,1,[],[],5,6,1 2 2 1 4 2,4,0.0,0.0,0.0,0.0,0.0,0.0,0,0.0,0.0,0.0,0.0,0.0
129,17,2.6639282,2,True,0.5,acc,right,False,2,1,6,ret,1,10,1,"['1', '2', '2', '1', '4', '2']","[98.14385449999827, 98.23174819999986, 99.00776960000076, 99.16793609999877, 100.6398096999983, 100.80778269999792]",5,6,# # # # # #,None,98.14385449999827,98.23174819999986,99.00776960000076,99.16793609999877,100.6398096999983,100.80778269999792,2.4678635999989638,0.0878937000015867,0.7760214000009,0.16016649999801302,1.471873599999526,0.1679729999996198
130,18,0.0,3,False,0.0,None,right,False,2,1,0,enc,0,0,1,[],[],5,6,2 2 1 3 1 3,6,0.0,0.0,0.0,0.0,0.0,0.0,0,0.0,0.0,0.0,0.0,0.0
131,19,1.8334546,3,True,0.5,acc,right,False,2,1,6,ret,1,10,1,"['2', '2', '1', '3', '1', '3']","[107.45575380000082, 107.96012989999872, 108.31973759999892, 108.84041499999876, 109.12795850000111, 109.28920839999773]",5,6,# # # # # #,None,107.45575380000082,107.96012989999872,108.31973759999892,108.84041499999876,109.12795850000111,109.28920839999773,0.1479711000029056,0.5043760999978986,0.35960770000019693,0.5206773999998404,0.2875435000023572,0.1612498999966192
132,20,0.0,2,False,0.0,None,right,False,2,1,0,enc,0,0,0,[],[],5,6,3 4 2 3 1 4,4,0.0,0.0,0.0,0.0,0.0,0.0,0,0.0,0.0,0.0,0.0,0.0
133,21,4.535764,2,True,0.5,acc,right,False,2,1,6,ret,1,10,0,"['4', '1', '3', '2', '4', '3']","[118.71991549999802, 119.0397630999978, 121.15982109999823, 121.34411099999852, 123.07188319999841, 123.25567949999822]",5,6,# # # # # #,None,118.71991549999802,119.0397630999978,121.15982109999823,121.34411099999852,123.07188319999841,123.25567949999822,2.9307071000002907,0.3198475999997754,2.1200580000004265,0.18428990000029444,1.7277721999998903,0.18379629999981262
134,22,0.0,3,False,0.0,None,right,False,2,1,0,enc,0,0,0,[],[],5,6,2 3 3 3 4 2,6,0.0,0.0,0.0,0.0,0.0,0.0,0,0.0,0.0,0.0,0.0,0.0
135,23,3.6319504,3,True,0.5,acc,right,True,2,1,5,ret,1,5,0,"['2', '4', '3', '3', '3', '4']","[132.23183389999758, 132.57595199999923, 132.86386570000104, 135.34378669999933, 135.56001789999937, 135.86378429999968]",5,6,# # # # # #,None,132.23183389999758,132.57595199999923,132.86386570000104,135.34378669999933,135.56001789999937,135.86378429999968,2.476154399999359,0.34411810000165133,0.28791370000180905,2.479920999998285,0.21623120000003837,0.3037664000003133
136,0,0.0,2,False,0.0,None,right,False,2,1,0,enc,0,0,1,[],[],6,6,2 3 1 1 2 3,4,0.0,0.0,0.0,0.0,0.0,0.0,0,0.0,0.0,0.0,0.0,0.0
137,1,0.919896,2,True,0.5,acc,right,False,2,1,6,ret,1,10,1,"['2', '3', '1', '1', '2', '3']","[6.6991998000012245, 6.9712036000019, 7.203173099998821, 7.363132300000871, 7.539059599999746, 7.61909580000065]",6,6,# # # # # #,None,6.6991998000012245,6.9712036000019,7.203173099998821,7.363132300000871,7.539059599999746,7.61909580000065,NaN,0.27200380000067526,0.2319694999969215,0.15995920000204933,0.17592729999887524,0.0800362000009045
138,2,0.0,3,False,0.0,None,right,False,2,1,0,enc,0,0,1,[],[],6,6,2 3 3 4 2 2,6,0.0,0.0,0.0,0.0,0.0,0.0,0,0.0,0.0,0.0,0.0,0.0
139,3,2.1440371,3,True,0.5,acc,right,False,2,1,6,ret,1,10,1,"['2', '3', '3', '4', '2', '2']","[14.17915129999892, 14.38709160000144, 14.59512900000118, 15.723372799999197, 16.123260799999116, 16.323188400001527]",6,6,# # # # # #,None,14.17915129999892,14.38709160000144,14.59512900000118,15.723372799999197,16.123260799999116,16.323188400001527,0.060055499998270534,0.2079403000025195,0.20803739999973914,1.1282437999980175,0.399887999999919,0.19992760000241105
140,4,0.0,2,False,0.0,None,right,False,2,1,0,enc,0,0,0,[],[],6,6,3 1 2 4 4 4,4,0.0,0.0,0.0,0.0,0.0,0.0,0,0.0,0.0,0.0,0.0,0.0
141,5,3.2318923,2,True,0.5,acc,right,False,2,1,6,ret,1,10,0,"['4', '4', '4', '2', '1', '3']","[26.731194899999537, 27.02710389999993, 28.323119000000588, 28.787126100000023, 29.90712650000205, 29.96308720000161]",6,6,# # # # # #,None,26.731194899999537,27.02710389999993,28.323119000000588,28.787126100000023,29.90712650000205,29.96308720000161,3.9080064999980095,0.29590900000039255,1.296015100000659,0.464007099999435,1.1200004000020272,0.05596069999955944
142,6,0.0,3,False,0.0,None,right,False,2,1,0,enc,0,0,1,[],[],6,6,3 3 1 3 2 2,6,0.0,0.0,0.0,0.0,0.0,0.0,0,0.0,0.0,0.0,0.0,0.0
143,7,1.2158719,3,True,0.5,acc,right,True,2,1,3,ret,1,3,1,"['3', '3', '3', '1', '3', '2']","[36.73117579999962, 36.811083399999916, 36.963160100000096, 37.243119200000365, 37.611136200001056, 37.94704769999953]",6,6,# # # # # #,None,36.73117579999962,36.811083399999916,36.963160100000096,37.243119200000365,37.611136200001056,37.94704769999953,0.26808859999800916,0.07990760000029695,0.1520767000001797,0.27995910000026925,0.36801700000069104,0.33591149999847403
144,8,0.0,2,False,0.0,None,right,False,2,1,0,enc,0,0,1,[],[],6,6,1 2 2 2 4 1,4,0.0,0.0,0.0,0.0,0.0,0.0,0,0.0,0.0,0.0,0.0,0.0
145,9,9.6889022,2,True,0.5,acc,right,True,2,1,5,ret,1,5,1,"['2', '2', '2', '2', '4', '1']","[39.49833760000183, 47.50713689999975, 48.47520219999933, 48.63522000000012, 49.091075600001204, 49.18723980000141]",6,6,# # # # # #,None,39.49833760000183,47.50713689999975,48.47520219999933,48.63522000000012,49.091075600001204,49.18723980000141,-4.948710099997697,8.008799299997918,0.96806529999958,0.16001780000078725,0.4558556000010867,0.09616420000020298
146,10,0.0,3,False,0.0,None,right,False,2,1,0,enc,0,0,1,[],[],6,6,3 1 4 4 2 4,6,0.0,0.0,0.0,0.0,0.0,0.0,0,0.0,0.0,0.0,0.0,0.0
147,11,2.7040763,3,True,0.5,acc,right,False,2,1,6,ret,1,10,1,"['3', '1', '4', '4', '2', '4']","[56.17108830000143, 56.92309640000167, 57.211070699999254, 58.47515000000203, 58.72306590000153, 58.87516460000188]",6,6,# # # # # #,None,56.17108830000143,56.92309640000167,57.211070699999254,58.47515000000203,58.72306590000153,58.87516460000188,0.4838485000000219,0.7520081000002392,0.28797429999758606,1.264079300002777,0.24791589999949792,0.15209870000035153
148,12,0.0,3,False,0.0,None,right,False,2,1,0,enc,0,0,0,[],[],6,6,3 4 1 3 4 2,6,0.0,0.0,0.0,0.0,0.0,0.0,0,0.0,0.0,0.0,0.0,0.0
149,13,4.3759738,3,True,0.5,acc,right,False,2,1,6,ret,1,10,0,"['2', '4', '3', '1', '4', '3']","[66.55507059999945, 66.81110239999907, 67.40309799999886, 70.5311451000016, 70.74704790000033, 70.93104440000025]",6,6,# # # # # #,None,66.55507059999945,66.81110239999907,67.40309799999886,70.5311451000016,70.74704790000033,70.93104440000025,1.1799059999975725,0.25603179999961867,0.591995599999791,3.128047100002732,0.2159027999987302,0.18399649999992107
150,14,0.0,3,False,0.0,None,right,False,2,1,0,enc,0,0,0,[],[],6,6,1 2 1 3 1 1,6,0.0,0.0,0.0,0.0,0.0,0.0,0,0.0,0.0,0.0,0.0,0.0
151,15,1.9041738,3,True,0.5,acc,right,False,2,1,6,ret,1,10,0,"['1', '1', '3', '1', '2', '1']","[77.69903010000053, 77.86714260000008, 78.1072892000011, 79.3871164000011, 79.51511459999892, 79.60320390000197]",6,6,# # # # # #,None,77.69903010000053,77.86714260000008,78.1072892000011,79.3871164000011,79.51511459999892,79.60320390000197,0.2679857000002812,0.1681124999995518,0.24014660000102594,1.2798271999999997,0.12799819999781903,0.08808930000304827
152,16,0.0,2,False,0.0,None,right,False,2,1,0,enc,0,0,1,[],[],6,6,2 1 4 3 3 2,4,0.0,0.0,0.0,0.0,0.0,0.0,0,0.0,0.0,0.0,0.0,0.0
153,17,3.4401058,2,True,0.5,acc,right,True,2,1,5,ret,1,5,1,"['2', '1', '4', '3', '2', '2']","[88.37905189999947, 88.66709260000061, 90.17104879999897, 90.44308060000185, 91.61910329999955, 91.81915769999978]",6,6,# # # # # #,None,88.37905189999947,88.66709260000061,90.17104879999897,90.44308060000185,91.61910329999955,91.81915769999978,2.275847999997495,0.28804070000114734,1.5039561999983562,0.2720318000028783,1.1760226999977021,0.20005440000022645
154,18,0.0,2,False,0.0,None,right,False,2,1,0,enc,0,0,0,[],[],6,6,1 4 4 1 2 3,4,0.0,0.0,0.0,0.0,0.0,0.0,0,0.0,0.0,0.0,0.0,0.0
155,19,6.2239824,2,True,0.5,acc,right,False,2,1,6,ret,1,10,0,"['3', '2', '1', '4', '4', '1']","[100.77108809999845, 101.19513450000159, 102.75500960000136, 103.14707899999848, 106.92302500000005, 106.99507050000102]",6,6,# # # # # #,None,100.77108809999845,101.19513450000159,102.75500960000136,103.14707899999848,106.92302500000005,106.99507050000102,2.4519303999986732,0.4240464000031352,1.559875099999772,0.3920693999971263,3.775946000001568,0.07204550000096788
156,20,0.0,2,False,0.0,None,right,False,2,1,0,enc,0,0,0,[],[],6,6,2 1 2 3 4 4,4,0.0,0.0,0.0,0.0,0.0,0.0,0,0.0,0.0,0.0,0.0,0.0
157,21,4.1125142,2,True,0.5,acc,right,False,2,1,6,ret,1,10,0,"['4', '4', '3', '2', '1', '2']","[116.15494430000035, 116.35509010000169, 118.75512449999951, 118.92297690000123, 120.15496600000188, 120.26745849999861]",6,6,# # # # # #,None,116.15494430000035,116.35509010000169,118.75512449999951,118.92297690000123,120.15496600000188,120.26745849999861,2.659873799999332,0.2001458000013372,2.4000343999978213,0.16785240000172053,1.2319891000006464,0.11249249999673339
158,22,0.0,3,False,0.0,None,right,False,2,1,0,enc,0,0,0,[],[],6,6,3 1 3 4 2 3,6,0.0,0.0,0.0,0.0,0.0,0.0,0,0.0,0.0,0.0,0.0,0.0
159,23,2.2245902,3,True,0.5,acc,right,False,2,1,6,ret,1,10,0,"['3', '2', '4', '3', '1', '3']","[128.98700879999888, 129.53103719999854, 129.9871177999994, 130.95500800000082, 131.03510879999885, 131.21159900000202]",6,6,# # # # # #,None,128.98700879999888,129.53103719999854,129.9871177999994,130.95500800000082,131.03510879999885,131.21159900000202,2.2195503000002645,0.5440283999996609,0.4560806000008597,0.9678902000014205,0.08010079999803565,0.1764902000031725
160,0,0.0,2,False,0.0,None,right,False,2,1,0,enc,0,0,1,[],[],7,6,2 4 4 2 1 3,4,0.0,0.0,0.0,0.0,0.0,0.0,0,0.0,0.0,0.0,0.0,0.0
161,1,4.8242696,2,True,0.5,acc,right,True,2,1,5,ret,1,5,1,"['2', '3', '4', '2', '1', '3']","[6.9951111000009405, 7.539098599998397, 10.075052299998788, 11.22707889999947, 11.747082199999568, 11.819380699998874]",7,6,# # # # # #,None,6.9951111000009405,7.539098599998397,10.075052299998788,11.22707889999947,11.747082199999568,11.819380699998874,NaN,0.5439874999974563,2.535953700000391,1.1520266000006814,0.5200033000000985,0.07229849999930593
162,2,0.0,3,False,0.0,None,right,False,2,1,0,enc,0,0,1,[],[],7,6,2 4 3 1 4 4,6,0.0,0.0,0.0,0.0,0.0,0.0,0,0.0,0.0,0.0,0.0,0.0
163,3,1.376052,3,True,0.5,acc,right,False,2,1,6,ret,1,10,1,"['2', '4', '3', '1', '4', '4']","[18.259052199999132, 18.538952300001256, 18.995024200001353, 19.203072500000417, 19.442972000000736, 19.63510419999875]",7,6,# # # # # #,None,18.259052199999132,18.538952300001256,18.995024200001353,19.203072500000417,19.442972000000736,19.63510419999875,-0.060328499999741325,0.2799001000021235,0.45607190000009723,0.2080482999990636,0.23989950000031968,0.19213219999801368
164,4,0.0,3,False,0.0,None,right,False,2,1,0,enc,0,0,1,[],[],7,6,3 3 4 4 4 1,6,0.0,0.0,0.0,0.0,0.0,0.0,0,0.0,0.0,0.0,0.0,0.0
165,5,1.8078492,3,True,0.5,acc,right,False,2,1,6,ret,1,10,1,"['3', '3', '4', '4', '4', '1']","[26.963139200001024, 27.15506749999986, 27.41906530000051, 28.114924199999223, 28.491006699998252, 28.770988399999624]",7,6,# # # # # #,None,26.963139200001024,27.15506749999986,27.41906530000051,28.114924199999223,28.491006699998252,28.770988399999624,0.8280350000022736,0.19192829999883543,0.2639978000006522,0.6958588999987114,0.3760824999990291,0.2799817000013718
166,6,0.0,2,False,0.0,None,right,False,2,1,0,enc,0,0,1,[],[],7,6,4 1 2 3 3 2,4,0.0,0.0,0.0,0.0,0.0,0.0,0,0.0,0.0,0.0,0.0,0.0
167,7,1.071919,2,True,0.5,acc,right,False,2,1,6,ret,1,10,1,"['4', '1', '2', '3', '3', '2']","[37.92307609999989, 38.18692870000086, 38.435010400000465, 38.643029700000625, 38.867007299999386, 38.99499509999805]",7,6,# # # # # #,None,37.92307609999989,38.18692870000086,38.435010400000465,38.643029700000625,38.867007299999386,38.99499509999805,2.6520877000002656,0.2638526000009733,0.24808169999960228,0.20801930000016,0.22397759999876143,0.12798779999866383
168,8,0.0,3,False,0.0,None,right,False,2,1,0,enc,0,0,0,[],[],7,6,3 4 2 1 2 2,6,0.0,0.0,0.0,0.0,0.0,0.0,0,0.0,0.0,0.0,0.0,0.0
169,9,1.9039776,3,True,0.5,acc,right,False,2,1,6,ret,1,10,0,"['2', '2', '1', '2', '4', '3']","[46.00303830000121, 46.14701929999865, 46.31496569999945, 47.56302969999888, 47.731008999999176, 47.90701590000026]",7,6,# # # # # #,None,46.00303830000121,46.14701929999865,46.31496569999945,47.56302969999888,47.731008999999176,47.90701590000026,0.5080432000031578,0.14398099999743863,0.16794640000080108,1.248063999999431,0.16797930000029737,0.17600690000108443
170,10,0.0,2,False,0.0,None,right,False,2,1,0,enc,0,0,0,[],[],7,6,4 4 3 4 3 3,4,0.0,0.0,0.0,0.0,0.0,0.0,0,0.0,0.0,0.0,0.0,0.0
171,11,6.9915983,2,True,0.5,acc,right,True,2,1,4,ret,1,4,0,"['4', '4', '4', '3', '4', '4']","[56.55547790000128, 56.75500050000119, 61.53097909999997, 61.69102560000101, 63.38701099999889, 63.54707620000045]",7,6,# # # # # #,None,56.55547790000128,56.75500050000119,61.53097909999997,61.69102560000101,63.38701099999889,63.54707620000045,2.148462000001018,0.1995225999999093,4.77597859999878,0.16004650000104448,1.6959853999978804,0.16006520000155433
172,12,0.0,2,False,0.0,None,right,False,2,1,0,enc,0,0,0,[],[],7,6,4 1 4 1 4 2,4,0.0,0.0,0.0,0.0,0.0,0.0,0,0.0,0.0,0.0,0.0,0.0
173,13,1.5680308,2,True,0.5,acc,right,False,2,1,6,ret,1,10,0,"['2', '4', '1', '4', '1', '4']","[73.61894190000021, 73.75484710000092, 74.84294750000117, 74.92290890000004, 75.13100779999877, 75.1869727000012]",7,6,# # # # # #,None,73.61894190000021,73.75484710000092,74.84294750000117,74.92290890000004,75.13100779999877,75.1869727000012,3.571865699999762,0.13590520000070683,1.0881004000002577,0.07996139999886509,0.2080988999987312,0.05596490000243648
174,14,0.0,3,False,0.0,None,right,False,2,1,0,enc,0,0,1,[],[],7,6,2 1 4 3 1 2,6,0.0,0.0,0.0,0.0,0.0,0.0,0,0.0,0.0,0.0,0.0,0.0
175,15,1.0080691,3,True,0.5,acc,right,False,2,1,6,ret,1,10,1,"['2', '1', '4', '3', '1', '2']","[82.15493029999925, 82.38703979999991, 82.59500929999922, 82.85102489999917, 83.05092280000099, 83.16299939999953]",7,6,# # # # # #,None,82.15493029999925,82.38703979999991,82.59500929999922,82.85102489999917,83.05092280000099,83.16299939999953,0.4679575999980443,0.23210950000066077,0.20796949999930803,0.25601559999995516,0.1998979000018153,0.11207659999854513
176,16,0.0,2,False,0.0,None,right,False,2,1,0,enc,0,0,0,[],[],7,6,4 4 4 2 4 2,4,0.0,0.0,0.0,0.0,0.0,0.0,0,0.0,0.0,0.0,0.0,0.0
177,17,1.0159685,2,True,0.5,acc,right,False,2,1,6,ret,1,10,0,"['2', '4', '2', '4', '4', '4']","[91.91498409999986, 92.0189274000004, 92.42702999999892, 92.49087900000086, 92.76298509999833, 92.93095259999973]",7,6,# # # # # #,None,91.91498409999986,92.0189274000004,92.42702999999892,92.49087900000086,92.76298509999833,92.93095259999973,2.251984700000321,0.10394330000053742,0.4081025999985286,0.06384900000193738,0.2721060999974725,0.16796750000139582
178,18,0.0,3,False,0.0,None,right,False,2,1,0,enc,0,0,0,[],[],7,6,3 1 4 4 2 4,6,0.0,0.0,0.0,0.0,0.0,0.0,0,0.0,0.0,0.0,0.0,0.0
179,19,2.8080022,3,True,0.5,acc,right,False,2,1,6,ret,1,10,0,"['4', '2', '4', '4', '1', '3']","[100.33091060000152, 100.56293039999946, 100.74693149999803, 102.60296480000034, 102.7788944999993, 103.13891280000098]",7,6,# # # # # #,None,100.33091060000152,100.56293039999946,100.74693149999803,102.60296480000034,102.7788944999993,103.13891280000098,0.8999580000017886,0.23201979999794275,0.18400109999856795,1.8560333000023093,0.17592969999896013,0.3600183000016841
180,20,0.0,3,False,0.0,None,right,False,2,1,0,enc,0,0,0,[],[],7,6,1 4 2 2 3 4,6,0.0,0.0,0.0,0.0,0.0,0.0,0,0.0,0.0,0.0,0.0,0.0
181,21,4.311954,3,True,0.5,acc,right,True,2,1,4,ret,1,4,0,"['4', '3', '2', '4', '2', '1']","[110.37092610000036, 110.69893279999815, 111.03494510000019, 114.29094400000031, 114.458942199999, 114.68288010000106]",7,6,# # # # # #,None,110.37092610000036,110.69893279999815,111.03494510000019,114.29094400000031,114.458942199999,114.68288010000106,0.7320132999993803,0.3280066999977862,0.3360123000020394,3.2559989000001224,0.16799819999869214,0.22393790000205627
182,22,0.0,2,False,0.0,None,right,False,2,1,0,enc,0,0,1,[],[],7,6,1 1 2 1 1 3,4,0.0,0.0,0.0,0.0,0.0,0.0,0,0.0,0.0,0.0,0.0,0.0
183,23,1.1200529,2,True,0.5,acc,right,False,2,1,6,ret,1,10,1,"['1', '1', '2', '1', '1', '3']","[123.1069318000009, 123.266865900001, 123.46686109999791, 123.63497279999865, 123.83486410000114, 124.22698469999887]",7,6,# # # # # #,None,123.1069318000009,123.266865900001,123.46686109999791,123.63497279999865,123.83486410000114,124.22698469999887,1.9240516999998363,0.15993410000010044,0.19999519999691984,0.16811170000073616,0.19989130000249133,0.39212059999772464
184,0,0.0,2,False,0.0,None,right,False,2,1,0,enc,0,0,1,[],[],8,6,4 2 3 2 2 2,4,0.0,0.0,0.0,0.0,0.0,0.0,0,0.0,0.0,0.0,0.0,0.0
185,1,1.288034,2,True,0.5,acc,right,False,2,1,6,ret,1,10,1,"['4', '2', '3', '2', '2', '2']","[6.734031299998605, 7.046087300001091, 7.406037699998706, 7.6380031000007875, 7.869884399999137, 8.022065299999667]",8,6,# # # # # #,None,6.734031299998605,7.046087300001091,7.406037699998706,7.6380031000007875,7.869884399999137,8.022065299999667,NaN,0.31205600000248523,0.359950399997615,0.23196540000208188,0.23188129999834928,0.15218090000053053
186,2,0.0,2,False,0.0,None,right,False,2,1,0,enc,0,0,1,[],[],8,6,1 1 1 3 1 4,4,0.0,0.0,0.0,0.0,0.0,0.0,0,0.0,0.0,0.0,0.0,0.0
187,3,0.840717,2,True,0.5,acc,right,False,2,1,6,ret,1,10,1,"['1', '1', '1', '3', '1', '4']","[16.48595700000078, 16.661829799999396, 16.877916699999332, 17.06195619999926, 17.2141120999986, 17.32667399999991]",8,6,# # # # # #,None,16.48595700000078,16.661829799999396,16.877916699999332,17.06195619999926,17.2141120999986,17.32667399999991,1.9638917000011133,0.17587279999861494,0.21608689999993658,0.1840394999999262,0.1521558999993431,0.11256190000131028
188,4,0.0,2,False,0.0,None,right,False,2,1,0,enc,0,0,0,[],[],8,6,2 1 2 1 3 4,4,0.0,0.0,0.0,0.0,0.0,0.0,0,0.0,0.0,0.0,0.0,0.0
189,5,1.560025,2,True,0.5,acc,right,False,2,1,6,ret,1,10,0,"['4', '3', '1', '2', '1', '2']","[26.901976000001014, 27.26192660000015, 28.13413419999779, 28.19791229999828, 28.397890199998074, 28.462000999999873]",8,6,# # # # # #,None,26.901976000001014,27.26192660000015,28.13413419999779,28.19791229999828,28.397890199998074,28.462000999999873,3.075302000001102,0.3599505999991379,0.8722075999976369,0.06377810000049067,0.19997789999979432,0.06411080000179936
190,6,0.0,2,False,0.0,None,right,False,2,1,0,enc,0,0,1,[],[],8,6,1 3 1 4 2 3,4,0.0,0.0,0.0,0.0,0.0,0.0,0,0.0,0.0,0.0,0.0,0.0
191,7,1.967931,2,True,0.5,acc,right,False,2,1,6,ret,1,10,1,"['1', '3', '1', '4', '2', '3']","[37.053959299999406, 37.39791549999791, 37.91082749999987, 38.150012199999765, 38.973925499998586, 39.02189029999863]",8,6,# # # # # #,None,37.053959299999406,37.39791549999791,37.91082749999987,38.150012199999765,38.973925499998586,39.02189029999863,2.0919582999995328,0.3439561999985017,0.5129120000019611,0.2391846999998961,0.8239132999988215,0.047964800000045216
192,8,0.0,3,False,0.0,None,right,False,2,1,0,enc,0,0,1,[],[],8,6,1 4 3 3 2 2,6,0.0,0.0,0.0,0.0,0.0,0.0,0,0.0,0.0,0.0,0.0,0.0
193,9,3.3041362,3,True,0.5,acc,right,False,2,1,6,ret,1,10,1,"['1', '4', '3', '3', '2', '2']","[46.17395319999923, 46.837910599999304, 47.10992239999905, 49.142010100000334, 49.3178674999981, 49.47808939999959]",8,6,# # # # # #,None,46.17395319999923,46.837910599999304,47.10992239999905,49.142010100000334,49.3178674999981,49.47808939999959,0.6520629000006011,0.6639574000000721,0.27201179999974556,2.0320877000012842,0.17585739999776706,0.1602219000014884
194,10,0.0,2,False,0.0,None,right,False,2,1,0,enc,0,0,0,[],[],8,6,4 3 3 4 4 1,4,0.0,0.0,0.0,0.0,0.0,0.0,0,0.0,0.0,0.0,0.0,0.0
195,11,5.0321495,2,True,0.5,acc,right,True,2,1,5,ret,1,5,0,"['1', '4', '3', '3', '3', '4']","[59.37398630000098, 59.44608159999916, 59.478675099999236, 62.254199700000754, 64.2538472999986, 64.4061357999999]",8,6,# # # # # #,None,59.37398630000098,59.44608159999916,59.478675099999236,62.254199700000754,64.2538472999986,64.4061357999999,3.3958969000013894,0.07209529999818187,0.03259350000007544,2.7755246000015177,1.999647599997843,0.15228850000130478
196,12,0.0,2,False,0.0,None,right,False,2,1,0,enc,0,0,0,[],[],8,6,3 1 3 2 4 2,4,0.0,0.0,0.0,0.0,0.0,0.0,0,0.0,0.0,0.0,0.0,0.0
197,13,3.93573,2,True,0.5,acc,right,False,2,1,6,ret,1,10,0,"['2', '4', '2', '3', '1', '3']","[73.60613480000029, 74.52770659999806, 76.31014909999794, 76.47004910000032, 77.4858525999989, 77.54186479999771]",8,6,# # # # # #,None,73.60613480000029,74.52770659999806,76.31014909999794,76.47004910000032,77.4858525999989,77.54186479999771,2.699999000000389,0.9215717999977642,1.7824424999998882,0.1599000000023807,1.015803499998583,0.056012199998804135
198,14,0.0,3,False,0.0,None,right,False,2,1,0,enc,0,0,1,[],[],8,6,1 3 2 3 3 3,6,0.0,0.0,0.0,0.0,0.0,0.0,0,0.0,0.0,0.0,0.0,0.0
199,15,1.0160567,3,True,0.5,acc,right,False,2,1,6,ret,1,10,1,"['1', '3', '2', '3', '3', '3']","[83.9498464999997, 84.14179589999912, 84.33387940000102, 84.52584659999775, 84.76745099999971, 84.96590319999814]",8,6,# # # # # #,None,83.9498464999997,84.14179589999912,84.33387940000102,84.52584659999775,84.76745099999971,84.96590319999814,-0.09201829999801703,0.19194939999943017,0.19208350000189967,0.19196719999672496,0.24160440000196104,0.1984521999984281
200,16,0.0,3,False,0.0,None,right,False,2,1,0,enc,0,0,1,[],[],8,6,4 2 4 4 2 4,6,0.0,0.0,0.0,0.0,0.0,0.0,0,0.0,0.0,0.0,0.0,0.0
201,17,1.8157747,3,True,0.5,acc,right,False,2,1,6,ret,1,10,1,"['4', '2', '4', '4', '2', '4']","[91.84611289999884, 92.12587419999909, 92.33399899999858, 93.0618289999984, 93.4218879, 93.66188759999932]",8,6,# # # # # #,None,91.84611289999884,92.12587419999909,92.33399899999858,93.0618289999984,93.4218879,93.66188759999932,0.3802097000007052,0.2797613000002457,0.20812479999949574,0.7278299999998126,0.36005890000160434,0.23999969999931636
202,18,0.0,3,False,0.0,None,right,False,2,1,0,enc,0,0,0,[],[],8,6,1 2 2 3 1 1,6,0.0,0.0,0.0,0.0,0.0,0.0,0,0.0,0.0,0.0,0.0,0.0
203,19,3.0159743,3,True,0.5,acc,right,False,2,1,6,ret,1,10,0,"['1', '1', '3', '2', '2', '1']","[100.88583519999884, 101.07788810000056, 101.3259094999994, 103.60633619999862, 103.77380809999886, 103.90180949999922]",8,6,# # # # # #,None,100.88583519999884,101.07788810000056,101.3259094999994,103.60633619999862,103.77380809999886,103.90180949999922,0.7239475999995193,0.1920529000017268,0.24802139999883366,2.280426699999225,0.16747190000023693,0.12800140000035753
204,20,0.0,3,False,0.0,None,right,False,2,1,0,enc,0,0,0,[],[],8,6,2 3 1 1 3 4,6,0.0,0.0,0.0,0.0,0.0,0.0,0,0.0,0.0,0.0,0.0,0.0
205,21,3.8400337,3,True,0.5,acc,right,True,2,1,4,ret,1,4,0,"['4', '3', '1', '1', '2', '4']","[112.96588960000008, 113.54183239999838, 114.07800959999804, 116.54210379999859, 116.59816610000053, 116.80592329999854]",8,6,# # # # # #,None,112.96588960000008,113.54183239999838,114.07800959999804,116.54210379999859,116.59816610000053,116.80592329999854,2.564080100000865,0.5759427999983018,0.5361771999996563,2.4640942000005452,0.05606230000194046,0.20775719999801368
206,22,0.0,3,False,0.0,None,right,False,2,1,0,enc,0,0,0,[],[],8,6,4 3 2 2 1 3,6,0.0,0.0,0.0,0.0,0.0,0.0,0,0.0,0.0,0.0,0.0,0.0
207,23,6.1917845,3,True,0.5,acc,right,True,2,1,3,ret,1,3,0,"['4', '1', '2', '2', '4', '3']","[124.67010870000013, 124.9577578999997, 125.37386730000071, 130.0218485999976, 130.2378695999978, 130.86189319999903]",8,6,# # # # # #,None,124.67010870000013,124.9577578999997,125.37386730000071,130.0218485999976,130.2378695999978,130.86189319999903,1.3641854000015883,0.28764919999957783,0.41610940000100527,4.6479812999969,0.21602100000018254,0.6240236000012374
