,MT,Unnamed: 0,Unnamed: 0.1,Unnamed: 0.1.1,Unnamed: 0.1.1.1,Unnamed: 0.1.1.1.1,Unnamed: 0.1.1.1.1.1,Unnamed: 0.1.1.1.1.1.1,Unnamed: 0.1.1.1.1.1.1.1,Unnamed: 0.1.1.1.1.1.1.1.1,chunk,display_trial_feedback,feedback_dur,feedback_type,hand,is_error,item_dur,iti_dur,number_correct,phase,phase_type,points,recall_dir,response,response_time,run_number,seq_length,seq_str,trial_dur
0,0,0,0,0,0,0,0,0,0,0,3,FALSE,0,None,right,FALSE,2,1,0,enc,0,0,1,[],[],1,6,2 2 2 4 4 3,6
1,2.2882944,1,1,1,1,1,1,1,1,1,3,TRUE,0.5,acc,right,FALSE,2,1,6,ret,1,10,1,"['2', '2', '2', '4', '4', '3']","[5.476285799999459, 5.69233389999863, 5.892237000000023, 7.3243458999986615, 7.516262899998765, 7.764580199998818]",1,6,# # # # # #,None
2,0,2,2,2,2,2,2,2,2,2,3,FALSE,0,None,right,FALSE,2,1,0,enc,0,0,1,[],[],1,6,1 3 1 3 1 2,6
3,2.0318866,3,3,3,3,3,3,3,3,3,3,TRUE,0.5,acc,right,FALSE,2,1,6,ret,1,10,1,"['1', '3', '1', '3', '1', '2']","[14.65248259999862, 15.180309800000032, 15.820299199998772, 16.180395899998985, 16.42836829999942, 16.68436920000022]",1,6,# # # # # #,None
4,0,4,4,4,4,4,4,4,4,4,3,FALSE,0,None,right,FALSE,2,1,0,enc,0,0,0,[],[],1,6,4 1 4 3 4 3,6
5,8.0798534,5,5,5,5,5,5,5,5,5,3,TRUE,0.5,acc,right,TRUE,2,1,5,ret,1,5,0,"['3', 'space', '3', '4', '1', '4']","[24.532399099998656, 24.940377199998693, 28.42052429999967, 32.052263599998696, 32.348229600000195, 32.61225249999916]",1,6,# # # # # #,None
6,0,6,6,6,6,6,6,6,6,6,2,FALSE,0,None,right,FALSE,2,1,0,enc,0,0,1,[],[],1,6,4 3 4 1 4 4,4
7,3.7920698,7,7,7,7,7,7,7,7,7,2,TRUE,0.5,acc,right,TRUE,2,1,5,ret,1,5,1,"['4', '1', '4', '1', '4', '4']","[41.46027089999916, 41.72427009999956, 44.300314199999775, 44.53226050000012, 45.028453199998694, 45.25234069999897]",1,6,# # # # # #,None
8,0,8,8,8,8,8,8,8,8,8,2,FALSE,0,None,right,FALSE,2,1,0,enc,0,0,0,[],[],1,6,4 1 3 3 1 4,4
9,1.5278768,9,9,9,9,9,9,9,9,9,2,TRUE,0.5,acc,right,TRUE,2,1,4,ret,1,4,0,"['4', '1', '3', '3', '4', '1']","[55.60427410000011, 55.89241140000013, 56.18020129999968, 56.42027210000015, 56.85240369999883, 57.13215089999903]",1,6,# # # # # #,None
10,0,10,10,10,10,10,10,10,10,10,2,FALSE,0,None,right,FALSE,2,1,0,enc,0,0,0,[],[],1,6,1 3 4 2 2 2,4
11,4.1519888,11,11,11,11,11,11,11,11,11,2,TRUE,0.5,acc,right,TRUE,2,1,3,ret,1,3,0,"['2', '2', '4', '1', '3', '2']","[66.58832780000012, 66.86855879999894, 67.2603612999992, 67.70822880000014, 70.4523154999988, 70.74031659999855]",1,6,# # # # # #,None
12,0,12,12,12,12,12,12,12,12,12,3,FALSE,0,None,right,FALSE,2,1,0,enc,0,0,0,[],[],1,6,4 1 1 1 4 3,6
13,3.807967,13,13,13,13,13,13,13,13,13,3,TRUE,0.5,acc,right,TRUE,2,1,4,ret,1,4,0,"['3', '4', '1', '4', '1', '1']","[79.6202314000002, 80.20433570000023, 80.58015909999995, 82.67628559999866, 82.98017029999937, 83.42819839999902]",1,6,# # # # # #,None
14,0,14,14,14,14,14,14,14,14,14,2,FALSE,0,None,right,FALSE,2,1,0,enc,0,0,1,[],[],1,6,1 2 3 4 3 1,4
15,2.3359699,15,15,15,15,15,15,15,15,15,2,TRUE,0.5,acc,right,FALSE,2,1,6,ret,1,10,1,"['1', '2', '3', '4', '3', '1']","[91.88428169999861, 92.49222579999878, 92.92411659999925, 93.34017309999945, 93.87616909999997, 94.22025159999976]",1,6,# # # # # #,None
16,0,16,16,16,16,16,16,16,0,,3,FALSE,0,None,right,FALSE,2,1,0,enc,0,0,1,[],[],1,6,4 2 2 1 1 2,6
17,1.319781,17,17,17,17,17,17,17,1,,3,TRUE,0.5,acc,right,FALSE,2,1,6,ret,1,10,1,"['4', '2', '2', '1', '1', '2']","[5.191186599999128, 5.479001800000333, 5.7109959999997955, 6.150992299999416, 6.32725980000032, 6.510967599999276]",1,6,# # # # # #,None
18,0,18,18,18,18,18,18,18,2,,3,FALSE,0,None,right,FALSE,2,1,0,enc,0,0,1,[],[],1,6,3 3 2 2 3 3,6
19,3.0720063,19,19,19,19,19,19,19,3,,3,TRUE,0.5,acc,right,FALSE,2,1,6,ret,1,10,1,"['3', '3', '2', '2', '3', '3']","[13.270975699999326, 13.518968200000018, 14.055169999999634, 15.247123900000588, 16.03107970000019, 16.34298200000012]",1,6,# # # # # #,None
20,0,20,20,20,20,20,20,20,4,,2,FALSE,0,None,right,FALSE,2,1,0,enc,0,0,0,[],[],1,6,1 4 4 2 2 1,4
21,5.3678337,21,21,21,21,21,21,21,5,,2,TRUE,0.5,acc,right,FALSE,2,1,6,ret,1,10,0,"['1', '2', '2', '4', '4', '1']","[25.855270300000484, 26.119180800000322, 28.119230500000413, 28.726951200000258, 31.007195000000138, 31.223104000000603]",1,6,# # # # # #,None
22,0,22,22,22,22,22,22,22,6,,3,FALSE,0,None,right,FALSE,2,1,0,enc,0,0,0,[],[],1,6,2 3 3 2 4 1,6
23,3.0719042,23,23,23,23,23,23,23,7,,3,TRUE,0.5,acc,right,FALSE,2,1,6,ret,1,10,0,"['1', '4', '2', '3', '3', '2']","[39.38303690000066, 39.847230400000626, 40.21487960000013, 42.023451700000805, 42.255196300000534, 42.454941100000724]",1,6,# # # # # #,None
24,0,24,24,24,24,24,24,24,8,,2,FALSE,0,None,right,FALSE,2,1,0,enc,0,0,0,[],[],1,6,4 3 2 1 3 4,4
25,4.415908,25,25,25,25,25,25,25,9,,2,TRUE,0.5,acc,right,TRUE,2,1,4,ret,1,4,0,"['4', '3', '1', '2', '4', '3']","[53.09487970000009, 53.639201899999534, 55.27087179999944, 55.55085979999967, 57.07880230000046, 57.51078769999913]",1,6,# # # # # #,None
26,0,26,26,26,26,26,26,26,10,,2,FALSE,0,None,right,FALSE,2,1,0,enc,0,0,1,[],[],1,6,4 3 3 1 1 2,4
27,4.6642266,27,27,27,27,27,27,27,11,,2,TRUE,0.5,acc,right,TRUE,2,1,4,ret,1,4,1,"['3', '3', '4', '1', '1', '2']","[66.68693249999887, 67.71875159999945, 69.70289279999815, 69.9347833999982, 71.23890569999821, 71.35115910000059]",1,6,# # # # # #,None
28,0,28,28,28,28,28,28,28,12,,3,FALSE,0,None,right,FALSE,2,1,0,enc,0,0,0,[],[],1,6,2 3 4 2 2 1,6
29,2.9439616,29,29,29,29,29,29,29,13,,3,TRUE,0.5,acc,right,FALSE,2,1,6,ret,1,10,0,"['1', '2', '2', '4', '3', '2']","[78.94279640000059, 79.25485909999952, 79.47088809999877, 81.37476340000103, 81.65486430000055, 81.88675799999874]",1,6,# # # # # #,None
30,0,30,30,30,30,30,30,30,14,,2,FALSE,0,None,right,FALSE,2,1,0,enc,0,0,1,[],[],1,6,4 2 3 4 2 1,4
31,2.2880647,31,31,31,31,31,31,31,15,,2,TRUE,0.5,acc,right,FALSE,2,1,6,ret,1,10,1,"['4', '2', '3', '4', '2', '1']","[91.18271780000032, 91.66269890000149, 92.03075960000024, 92.3748547999985, 93.25479169999926, 93.47078249999868]",1,6,# # # # # #,None
32,0,32,32,32,32,32,32,32,16,,2,FALSE,0,None,right,FALSE,2,1,0,enc,0,0,1,[],[],1,6,1 4 1 3 2 4,4
33,4.8158087,33,33,33,33,33,33,33,17,,2,TRUE,0.5,acc,right,TRUE,2,1,5,ret,1,5,1,"['1', '4', '1', '3', '3', '4']","[102.2709253999983, 102.55086340000162, 102.87097819999872, 103.19071710000026, 104.04678230000172, 107.08673409999938]",1,6,# # # # # #,None
34,0,34,34,34,34,34,34,34,18,,3,FALSE,0,None,right,FALSE,2,1,0,enc,0,0,0,[],[],1,6,2 3 3 3 3 4,6
35,2.0079763,35,35,35,35,35,35,35,19,,3,TRUE,0.5,acc,right,FALSE,2,1,6,ret,1,10,0,"['4', '3', '3', '3', '3', '2']","[114.60675390000142, 115.09479950000059, 115.48683749999873, 116.04731809999976, 116.34289209999952, 116.61473020000085]",1,6,# # # # # #,None
36,0,36,36,36,36,36,36,36,20,,3,FALSE,0,None,right,FALSE,2,1,0,enc,0,0,1,[],[],1,6,1 1 3 2 2 4,6
37,2.1359932,37,37,37,37,37,37,37,21,,3,TRUE,0.5,acc,right,FALSE,2,1,6,ret,1,10,1,"['1', '1', '3', '2', '2', '4']","[123.31074780000017, 123.71870939999826, 124.07081220000146, 124.67134189999888, 125.03070370000023, 125.44674100000157]",1,6,# # # # # #,None
38,0,38,38,38,38,38,38,38,22,,2,FALSE,0,None,right,FALSE,2,1,0,enc,0,0,0,[],[],1,6,4 1 1 1 4 4,4
39,2.7200142,39,39,39,39,39,39,39,23,,2,TRUE,0.5,acc,right,FALSE,2,1,6,ret,1,10,0,"['4', '4', '1', '1', '1', '4']","[134.91068540000015, 135.1347396000001, 136.03887529999884, 136.23882849999973, 137.3907061000009, 137.6306996000003]",1,6,# # # # # #,None
40,0,40,40,40,40,40,40,0,,,3,FALSE,0,None,right,FALSE,2,1,0,enc,0,0,1,[],[],2,6,3 2 2 3 2 3,6
41,2.0719457,41,41,41,41,41,41,1,,,3,TRUE,0.5,acc,right,FALSE,2,1,6,ret,1,10,1,"['3', '2', '2', '3', '2', '3']","[5.114952100000664, 6.1229299000005994, 6.346973899999284, 6.770902899999783, 6.9869612000002235, 7.186897799998405]",2,6,# # # # # #,None
42,0,42,42,42,42,42,42,2,,,2,FALSE,0,None,right,FALSE,2,1,0,enc,0,0,1,[],[],2,6,2 4 4 4 4 1,4
43,1.4561168,43,43,43,43,43,43,3,,,2,TRUE,0.5,acc,right,FALSE,2,1,6,ret,1,10,1,"['2', '4', '4', '4', '4', '1']","[16.042915999998513, 16.458995400000276, 16.89896890000091, 17.131042299999535, 17.346949399998266, 17.49903279999853]",2,6,# # # # # #,None
44,0,44,44,44,44,44,44,4,,,3,FALSE,0,None,right,FALSE,2,1,0,enc,0,0,1,[],[],2,6,1 4 1 4 4 3,6
45,3.3357084,45,45,45,45,45,45,5,,,3,TRUE,0.5,acc,right,FALSE,2,1,6,ret,1,10,1,"['1', '4', '1', '4', '4', '3']","[24.41927729999952, 25.411065500000404, 26.12289370000144, 27.306999399999768, 27.514959299998736, 27.75498570000127]",2,6,# # # # # #,None
46,0,46,46,46,46,46,46,6,,,3,FALSE,0,None,right,FALSE,2,1,0,enc,0,0,0,[],[],2,6,1 3 1 3 1 3,6
47,5.0079941,47,47,47,47,47,47,7,,,3,TRUE,0.5,acc,right,FALSE,2,1,6,ret,1,10,0,"['3', '1', '3', '1', '3', '1']","[35.194919199999276, 35.434933500000625, 35.67493810000087, 39.83488379999835, 40.04292219999843, 40.202913299999636]",2,6,# # # # # #,None
48,0,48,48,48,48,48,48,8,,,2,FALSE,0,None,right,FALSE,2,1,0,enc,0,0,0,[],[],2,6,2 1 4 4 4 2,4
49,2.8240708,49,49,49,49,49,49,9,,,2,TRUE,0.5,acc,right,FALSE,2,1,6,ret,1,10,0,"['2', '4', '4', '4', '1', '2']","[49.818963599998824, 50.090982599998824, 51.00291239999933, 51.2911110999994, 52.52300660000037, 52.64303440000003]",2,6,# # # # # #,None
50,0,50,50,50,50,50,50,10,,,3,FALSE,0,None,right,FALSE,2,1,0,enc,0,0,0,[],[],2,6,3 3 4 1 2 3,6
51,3.3839034,51,51,51,51,51,51,11,,,3,TRUE,0.5,acc,right,FALSE,2,1,6,ret,1,10,0,"['3', '2', '1', '4', '3', '3']","[59.81107070000144, 60.03485219999857, 60.25110280000081, 62.730961199999, 62.994904099999985, 63.194974099998944]",2,6,# # # # # #,None
52,0,52,52,52,52,52,52,12,,,2,FALSE,0,None,right,FALSE,2,1,0,enc,0,0,0,[],[],2,6,4 2 2 2 3 1,4
53,2.9999672,53,53,53,53,53,53,13,,,2,TRUE,0.5,acc,right,FALSE,2,1,6,ret,1,10,0,"['1', '3', '2', '2', '2', '4']","[72.79489620000095, 72.98690309999802, 74.09890209999867, 74.28298509999877, 75.6110179999996, 75.79486339999858]",2,6,# # # # # #,None
54,0,54,54,54,54,54,54,14,,,3,FALSE,0,None,right,FALSE,2,1,0,enc,0,0,1,[],[],2,6,3 2 2 1 1 4,6
55,2.1199462,55,55,55,55,55,55,15,,,3,TRUE,0.5,acc,right,FALSE,2,1,6,ret,1,10,1,"['3', '2', '2', '1', '1', '4']","[82.66685670000152, 82.93893899999966, 83.20294659999854, 84.17992389999927, 84.45889410000018, 84.78680289999829]",2,6,# # # # # #,None
56,0,56,56,56,56,56,56,16,,,2,FALSE,0,None,right,FALSE,2,1,0,enc,0,0,0,[],[],2,6,4 3 2 1 2 2,4
57,4.6801679,57,57,57,57,57,57,17,,,2,TRUE,0.5,acc,right,FALSE,2,1,6,ret,1,10,0,"['2', '2', '1', '2', '3', '4']","[93.67490710000129, 93.8508440000005, 95.47488349999912, 95.88285019999967, 98.08281970000098, 98.35507499999949]",2,6,# # # # # #,None
58,0,58,58,58,58,58,58,18,,,2,FALSE,0,None,right,FALSE,2,1,0,enc,0,0,1,[],[],2,6,3 1 4 4 2 3,4
59,1.6241101,59,59,59,59,59,59,19,,,2,TRUE,0.5,acc,right,FALSE,2,1,6,ret,1,10,1,"['3', '1', '4', '4', '2', '3']","[107.2748791999984, 107.49889769999936, 108.0043517999984, 108.24281390000033, 108.76276629999848, 108.89898929999981]",2,6,# # # # # #,None
60,0,60,60,60,60,60,60,20,,,3,FALSE,0,None,right,FALSE,2,1,0,enc,0,0,0,[],[],2,6,1 1 4 4 3 2,6
61,2.9919672,61,61,61,61,61,61,21,,,3,TRUE,0.5,acc,right,FALSE,2,1,6,ret,1,10,0,"['2', '3', '4', '4', '1', '1']","[118.60286669999914, 118.9068331999988, 119.21081449999838, 121.1308613000001, 121.4029303999996, 121.59483389999878]",2,6,# # # # # #,None
62,0,62,62,62,62,62,62,22,,,2,FALSE,0,None,right,FALSE,2,1,0,enc,0,0,1,[],[],2,6,4 2 1 2 4 1,4
63,1.7760392,63,63,63,63,63,63,23,,,2,TRUE,0.5,acc,right,FALSE,2,1,6,ret,1,10,1,"['4', '2', '1', '2', '4', '1']","[130.56277649999902, 130.90682229999948, 131.1947684000006, 131.45084529999804, 132.0828393999982, 132.33881570000085]",2,6,# # # # # #,None
64,0,64,64,64,64,64,0,,,,2,FALSE,0,None,right,FALSE,2,1,0,enc,0,0,1,[],[],3,6,1 3 3 1 2 3,4
65,1.2879779,65,65,65,65,65,1,,,,2,TRUE,0.5,acc,right,FALSE,2,1,6,ret,1,10,1,"['1', '3', '3', '1', '2', '3']","[7.012867099998402, 7.244927699997788, 7.812991699996928, 8.028775999999198, 8.220848999997543, 8.300844999997935]",3,6,# # # # # #,None
66,0,66,66,66,66,66,2,,,,3,FALSE,0,None,right,FALSE,2,1,0,enc,0,0,0,[],[],3,6,2 3 1 2 2 1,6
67,4.2480205,67,67,67,67,67,3,,,,3,TRUE,0.5,acc,right,FALSE,2,1,6,ret,1,10,0,"['1', '2', '2', '1', '3', '2']","[16.060865999999805, 16.276721700000053, 16.4850071999972, 19.92481939999925, 20.1408064999996, 20.308886499999062]",3,6,# # # # # #,None
68,0,68,68,68,68,68,4,,,,3,FALSE,0,None,right,FALSE,2,1,0,enc,0,0,1,[],[],3,6,4 1 3 2 2 1,6
69,1.2562157,69,69,69,69,69,5,,,,3,TRUE,0.5,acc,right,FALSE,2,1,6,ret,1,10,1,"['4', '1', '3', '2', '2', '1']","[27.132837799999834, 27.3727321999977, 27.628746699996555, 27.908919399997103, 28.076832699996885, 28.389053499999136]",3,6,# # # # # #,None
70,0,70,70,70,70,70,6,,,,2,FALSE,0,None,right,FALSE,2,1,0,enc,0,0,0,[],[],3,6,3 4 4 3 4 1,4
71,7.3036655,71,71,71,71,71,7,,,,2,TRUE,0.5,acc,right,FALSE,2,1,6,ret,1,10,0,"['1', '4', '3', '4', '4', '3']","[37.340974099999585, 37.700908299997536, 41.22875889999705, 41.61271439999837, 44.46080059999804, 44.64463959999921]",3,6,# # # # # #,None
72,0,72,72,72,72,72,8,,,,3,FALSE,0,None,right,FALSE,2,1,0,enc,0,0,1,[],[],3,6,1 2 2 4 4 3,6
73,1.4741529,73,73,73,73,73,9,,,,3,TRUE,0.5,acc,right,FALSE,2,1,6,ret,1,10,1,"['1', '2', '2', '4', '4', '3']","[51.564754099999845, 51.8048112999968, 52.00489729999754, 52.58080709999922, 52.78888519999964, 53.03890699999829]",3,6,# # # # # #,None
74,0,74,74,74,74,74,10,,,,2,FALSE,0,None,right,FALSE,2,1,0,enc,0,0,0,[],[],3,6,4 4 3 2 3 3,4
75,2.1677681,75,75,75,75,75,11,,,,2,TRUE,0.5,acc,right,FALSE,2,1,6,ret,1,10,0,"['3', '3', '2', '3', '4', '4']","[61.30895669999882, 61.51674369999819, 62.54870779999692, 62.70090919999711, 63.29275229999985, 63.47672479999892]",3,6,# # # # # #,None
76,0,76,76,76,76,76,12,,,,3,FALSE,0,None,right,FALSE,2,1,0,enc,0,0,0,[],[],3,6,2 4 3 2 2 4,6
77,3.3680362,77,77,77,77,77,13,,,,3,TRUE,0.5,acc,right,TRUE,2,1,4,ret,1,4,0,"['4', '2', '2', '4', '3', '2']","[72.69260619999841, 73.00483739999981, 73.30882399999973, 75.46869650000008, 75.71667909999815, 76.06064239999978]",3,6,# # # # # #,None
78,0,78,78,78,78,78,14,,,,2,FALSE,0,None,right,FALSE,2,1,0,enc,0,0,0,[],[],3,6,2 3 4 4 1 2,4
79,4.5836578,79,79,79,79,79,15,,,,2,TRUE,0.5,acc,right,TRUE,2,1,2,ret,1,2,0,"['2', '1', '3', '2', '4', '4']","[85.96499939999921, 86.05360889999793, 87.73267279999709, 87.79670039999837, 88.57292629999938, 90.54865719999725]",3,6,# # # # # #,None
80,0,80,80,80,80,80,16,,,,3,FALSE,0,None,right,FALSE,2,1,0,enc,0,0,1,[],[],3,6,2 1 1 2 4 1,6
81,1.535946,81,81,81,81,81,17,,,,3,TRUE,0.5,acc,right,FALSE,2,1,6,ret,1,10,1,"['2', '1', '1', '2', '4', '1']","[97.69283809999979, 98.02062749999823, 98.34067639999921, 98.86873979999655, 99.06868699999904, 99.22878409999976]",3,6,# # # # # #,None
82,0,82,82,82,82,82,18,,,,3,FALSE,0,None,right,FALSE,2,1,0,enc,0,0,0,[],[],3,6,3 2 1 1 3 2,6
83,6.0480235,83,83,83,83,83,19,,,,3,TRUE,0.5,acc,right,TRUE,2,1,5,ret,1,5,0,"['2', '2', '1', '1', '2', '3']","[110.30065789999935, 110.99680279999666, 113.34872339999856, 115.70097929999974, 115.99655359999815, 116.3486813999989]",3,6,# # # # # #,None
84,0,84,84,84,84,84,20,,,,2,FALSE,0,None,right,FALSE,2,1,0,enc,0,0,1,[],[],3,6,1 4 1 4 2 1,4
85,1.2561154,85,85,85,85,85,21,,,,2,TRUE,0.5,acc,right,FALSE,2,1,6,ret,1,10,1,"['1', '4', '1', '4', '2', '1']","[124.85258229999818, 125.188576499997, 125.44476020000002, 125.68457659999694, 125.94070289999945, 126.10869769999772]",3,6,# # # # # #,None
86,0,86,86,86,86,86,22,,,,2,FALSE,0,None,right,FALSE,2,1,0,enc,0,0,1,[],[],3,6,1 3 2 1 1 3,4
87,3.143821,87,87,87,87,87,23,,,,2,TRUE,0.5,acc,right,TRUE,2,1,5,ret,1,5,1,"['1', '4', '2', '1', '1', '3']","[134.43679339999653, 134.75661729999774, 135.18076329999894, 135.98073779999686, 137.42074699999648, 137.580614399998]",3,6,# # # # # #,None
88,0,88,88,88,88,0,,,,,2,FALSE,0,None,right,FALSE,2,1,0,enc,0,0,1,[],[],4,6,4 4 1 3 2 2,4
89,25.1217841,89,89,89,89,1,,,,,2,TRUE,0.5,acc,right,TRUE,2,1,5,ret,1,5,1,"['m', '4', '1', '3', '2', '2']","[-13.360416899999109, 9.345501499999955, 9.961325399999623, 10.10539069999868, 11.609328099999402, 11.761367200000677]",4,6,# # # # # #,None
90,0,90,90,90,90,2,,,,,2,FALSE,0,None,right,FALSE,2,1,0,enc,0,0,0,[],[],4,6,3 2 1 3 4 3,4
91,3.6559229,91,91,91,91,3,,,,,2,TRUE,0.5,acc,right,FALSE,2,1,6,ret,1,10,0,"['3', '4', '3', '1', '2', '3']","[22.089348800000153, 22.489270499998383, 24.04131259999849, 24.185405000000173, 25.641370299999835, 25.74527169999783]",4,6,# # # # # #,None
92,0,92,92,92,92,4,,,,,3,FALSE,0,None,right,FALSE,2,1,0,enc,0,0,0,[],[],4,6,2 3 2 3 1 2,6
93,5.2878123,93,93,93,93,5,,,,,3,TRUE,0.5,acc,right,TRUE,2,1,5,ret,1,5,0,"['1', '1', '3', '2', '3', '2']","[32.761509100000694, 35.35338309999861, 35.5534004000001, 37.60951959999875, 37.83343120000063, 38.04932139999801]",4,6,# # # # # #,None
94,0,94,94,94,94,6,,,,,3,FALSE,0,None,right,FALSE,2,1,0,enc,0,0,1,[],[],4,6,4 4 4 2 2 1,6
95,1.3759537,95,95,95,95,7,,,,,3,TRUE,0.5,acc,right,FALSE,2,1,6,ret,1,10,1,"['4', '4', '4', '2', '2', '1']","[44.417294399998354, 44.625276399998256, 44.889375499999005, 45.37724969999908, 45.57727220000015, 45.79324809999889]",4,6,# # # # # #,None
96,0,96,96,96,96,8,,,,,2,FALSE,0,None,right,FALSE,2,1,0,enc,0,0,1,[],[],4,6,3 1 4 3 4 1,4
97,1.856037,97,97,97,97,9,,,,,2,TRUE,0.5,acc,right,TRUE,2,1,5,ret,1,5,1,"['3', '1', '4', '3', '3', '1']","[54.433303999998316, 54.77728120000029, 55.33727519999957, 55.777233000000706, 56.12934239999959, 56.289340999999695]",4,6,# # # # # #,None
98,0,98,98,98,98,10,,,,,3,FALSE,0,None,right,FALSE,2,1,0,enc,0,0,1,[],[],4,6,3 1 4 2 4 3,6
99,3.4481465,99,99,99,99,11,,,,,3,TRUE,0.5,acc,right,FALSE,2,1,6,ret,1,10,1,"['3', '1', '4', '2', '4', '3']","[63.28124929999831, 63.96126390000063, 64.38561389999813, 65.6253579999975, 66.37741679999817, 66.72939580000093]",4,6,# # # # # #,None
100,0,100,100,100,100,12,,,,,2,FALSE,0,None,right,FALSE,2,1,0,enc,0,0,0,[],[],4,6,2 1 4 1 4 4,4
101,15.4623529,101,101,101,101,13,,,,,2,TRUE,0.5,acc,right,TRUE,2,1,5,ret,1,5,0,"['3', '4', '1', '4', '1', '2']","[68.27500370000052, 78.45730840000033, 82.8572213999978, 83.22545339999851, 83.59332920000088, 83.73735659999875]",4,6,# # # # # #,None
102,0,102,102,102,102,14,,,,,3,FALSE,0,None,right,FALSE,2,1,0,enc,0,0,0,[],[],4,6,4 4 4 2 2 3,6
103,2.0320668,103,103,103,103,15,,,,,3,TRUE,0.5,acc,right,FALSE,2,1,6,ret,1,10,0,"['3', '2', '2', '4', '4', '4']","[92.08124669999961, 92.3772542000006, 92.68123510000078, 93.71322220000002, 93.92933319999793, 94.11331349999818]",4,6,# # # # # #,None
104,0,104,104,104,104,16,,,,,2,FALSE,0,None,right,FALSE,2,1,0,enc,0,0,1,[],[],4,6,4 2 3 2 4 3,4
105,1.7279261,105,105,105,105,17,,,,,2,TRUE,0.5,acc,right,TRUE,2,1,5,ret,1,5,1,"['4', '2', '3', '2', '3', '3']","[102.9772759999978, 103.26535169999988, 103.52124220000042, 103.87324349999835, 104.53717069999766, 104.70520209999813]",4,6,# # # # # #,None
106,0,106,106,106,106,18,,,,,2,FALSE,0,None,right,FALSE,2,1,0,enc,0,0,0,[],[],4,6,4 4 2 3 3 4,4
107,4.4799411,107,107,107,107,19,,,,,2,TRUE,0.5,acc,right,TRUE,2,1,5,ret,1,5,0,"['4', '3', '3', '2', '2', '4']","[114.36927089999881, 114.71320990000095, 115.2732032999993, 115.57719889999862, 118.70520269999906, 118.84921200000099]",4,6,# # # # # #,None
108,0,108,108,108,108,20,,,,,3,FALSE,0,None,right,FALSE,2,1,0,enc,0,0,1,[],[],4,6,3 3 3 1 1 2,6
109,0.8965269,109,109,109,109,21,,,,,3,TRUE,0.5,acc,right,FALSE,2,1,6,ret,1,10,1,"['3', '3', '3', '1', '1', '2']","[125.54521789999853, 125.75318960000004, 125.92919419999816, 126.2252645999979, 126.36120739999751, 126.44174479999856]",4,6,# # # # # #,None
110,0,110,110,110,110,22,,,,,3,FALSE,0,None,right,FALSE,2,1,0,enc,0,0,0,[],[],4,6,1 4 3 2 2 1,6
111,2.6320634,111,111,111,111,23,,,,,3,TRUE,0.5,acc,right,TRUE,2,1,5,ret,1,5,0,"['1', '2', '2', '3', '3', '1']","[134.00908189999973, 134.23322279999775, 134.44918830000097, 136.3212410999986, 136.4972114000011, 136.64114530000006]",4,6,# # # # # #,None
112,0,112,112,112,0,,,,,,3,FALSE,0,None,right,FALSE,2,1,0,enc,0,0,1,[],[],5,6,4 3 1 1 1 1,6
113,1.1919562,113,113,113,1,,,,,,3,TRUE,0.5,acc,right,FALSE,2,1,6,ret,1,10,1,"['4', '3', '1', '1', '1', '1']","[4.743766499999765, 5.032261100001051, 5.279777600000671, 5.4717493999996805, 5.623765100001037, 5.935722700000042]",5,6,# # # # # #,None
114,0,114,114,114,2,,,,,,3,FALSE,0,None,right,FALSE,2,1,0,enc,0,0,1,[],[],5,6,2 4 2 3 2 4,6
115,1.879962,115,115,115,3,,,,,,3,TRUE,0.5,acc,right,FALSE,2,1,6,ret,1,10,1,"['2', '4', '2', '3', '2', '4']","[12.959774700000708, 13.207812799999374, 13.447754199998599, 14.311841200000345, 14.631736899998941, 14.839736699999776]",5,6,# # # # # #,None
116,0,116,116,116,4,,,,,,2,FALSE,0,None,right,FALSE,2,1,0,enc,0,0,1,[],[],5,6,4 3 3 2 2 2,4
117,2.520042,117,117,117,5,,,,,,2,TRUE,0.5,acc,right,TRUE,2,1,4,ret,1,4,1,"['4', '3', '2', '3', '2', '2']","[24.407713699998567, 24.86392049999995, 25.863735999999335, 26.087851500000397, 26.783892799998284, 26.92775569999867]",5,6,# # # # # #,None
118,0,118,118,118,6,,,,,,2,FALSE,0,None,right,FALSE,2,1,0,enc,0,0,1,[],[],5,6,2 3 1 3 2 3,4
119,1.3359736,119,119,119,7,,,,,,2,TRUE,0.5,acc,right,TRUE,2,1,4,ret,1,4,1,"['2', '4', '1', '3', '2', '4']","[35.78379230000064, 36.04802109999946, 36.31979330000104, 36.56761919999917, 36.79988349999985, 37.11976589999904]",5,6,# # # # # #,None
120,0,120,120,120,8,,,,,,2,FALSE,0,None,right,FALSE,2,1,0,enc,0,0,0,[],[],5,6,3 2 3 1 3 4,4
121,2.9684982,121,121,121,9,,,,,,2,TRUE,0.5,acc,right,TRUE,2,1,4,ret,1,4,0,"['4', '3', '2', '3', '1', '3']","[46.56770139999935, 47.039676399999735, 48.7996553999983, 49.032167199999094, 49.4396897000006, 49.536199599999236]",5,6,# # # # # #,None
122,0,122,122,122,10,,,,,,3,FALSE,0,None,right,FALSE,2,1,0,enc,0,0,0,[],[],5,6,1 3 1 4 1 1,6
123,2.3360474,123,123,123,11,,,,,,3,TRUE,0.5,acc,right,FALSE,2,1,6,ret,1,10,0,"['1', '1', '4', '1', '3', '1']","[58.735814600000595, 59.1119097999981, 59.44787929999802, 60.736160599997675, 60.97577589999855, 61.07186200000069]",5,6,# # # # # #,None
124,0,124,124,124,12,,,,,,3,FALSE,0,None,right,FALSE,2,1,0,enc,0,0,0,[],[],5,6,3 3 4 4 1 1,6
125,6.0795579,125,125,125,13,,,,,,3,TRUE,0.5,acc,right,TRUE,2,1,2,ret,1,2,0,"['1', '1', '1', '2', '1', '1']","[68.76023789999817, 69.11174089999986, 69.45589240000118, 73.32788009999786, 74.5119096999988, 74.83979579999868]",5,6,# # # # # #,None
126,0,126,126,126,14,,,,,,2,FALSE,0,None,right,FALSE,2,1,0,enc,0,0,0,[],[],5,6,1 4 1 2 4 4,4
127,5.5916851,127,127,127,15,,,,,,2,TRUE,0.5,acc,right,TRUE,2,1,4,ret,1,4,0,"['4', '4', '1', '2', '4', '1']","[83.58430579999913, 83.783948100001, 85.76003739999942, 85.83979320000071, 89.13598859999911, 89.1759908999993]",5,6,# # # # # #,None
128,0,128,128,128,16,,,,,,2,FALSE,0,None,right,FALSE,2,1,0,enc,0,0,1,[],[],5,6,1 2 2 1 4 2,4
129,2.6639282,129,129,129,17,,,,,,2,TRUE,0.5,acc,right,FALSE,2,1,6,ret,1,10,1,"['1', '2', '2', '1', '4', '2']","[98.14385449999827, 98.23174819999986, 99.00776960000076, 99.16793609999877, 100.6398096999983, 100.80778269999792]",5,6,# # # # # #,None
130,0,130,130,130,18,,,,,,3,FALSE,0,None,right,FALSE,2,1,0,enc,0,0,1,[],[],5,6,2 2 1 3 1 3,6
131,1.8334546,131,131,131,19,,,,,,3,TRUE,0.5,acc,right,FALSE,2,1,6,ret,1,10,1,"['2', '2', '1', '3', '1', '3']","[107.45575380000082, 107.96012989999872, 108.31973759999892, 108.84041499999876, 109.12795850000111, 109.28920839999773]",5,6,# # # # # #,None
132,0,132,132,132,20,,,,,,2,FALSE,0,None,right,FALSE,2,1,0,enc,0,0,0,[],[],5,6,3 4 2 3 1 4,4
133,4.535764,133,133,133,21,,,,,,2,TRUE,0.5,acc,right,FALSE,2,1,6,ret,1,10,0,"['4', '1', '3', '2', '4', '3']","[118.71991549999802, 119.0397630999978, 121.15982109999823, 121.34411099999852, 123.07188319999841, 123.25567949999822]",5,6,# # # # # #,None
134,0,134,134,134,22,,,,,,3,FALSE,0,None,right,FALSE,2,1,0,enc,0,0,0,[],[],5,6,2 3 3 3 4 2,6
135,3.6319504,135,135,135,23,,,,,,3,TRUE,0.5,acc,right,TRUE,2,1,5,ret,1,5,0,"['2', '4', '3', '3', '3', '4']","[132.23183389999758, 132.57595199999923, 132.86386570000104, 135.34378669999933, 135.56001789999937, 135.86378429999968]",5,6,# # # # # #,None
136,0,136,136,0,,,,,,,2,FALSE,0,None,right,FALSE,2,1,0,enc,0,0,1,[],[],6,6,2 3 1 1 2 3,4
137,0.919896,137,137,1,,,,,,,2,TRUE,0.5,acc,right,FALSE,2,1,6,ret,1,10,1,"['2', '3', '1', '1', '2', '3']","[6.6991998000012245, 6.9712036000019, 7.203173099998821, 7.363132300000871, 7.539059599999746, 7.61909580000065]",6,6,# # # # # #,None
138,0,138,138,2,,,,,,,3,FALSE,0,None,right,FALSE,2,1,0,enc,0,0,1,[],[],6,6,2 3 3 4 2 2,6
139,2.1440371,139,139,3,,,,,,,3,TRUE,0.5,acc,right,FALSE,2,1,6,ret,1,10,1,"['2', '3', '3', '4', '2', '2']","[14.17915129999892, 14.38709160000144, 14.59512900000118, 15.723372799999197, 16.123260799999116, 16.323188400001527]",6,6,# # # # # #,None
140,0,140,140,4,,,,,,,2,FALSE,0,None,right,FALSE,2,1,0,enc,0,0,0,[],[],6,6,3 1 2 4 4 4,4
141,3.2318923,141,141,5,,,,,,,2,TRUE,0.5,acc,right,FALSE,2,1,6,ret,1,10,0,"['4', '4', '4', '2', '1', '3']","[26.731194899999537, 27.02710389999993, 28.323119000000588, 28.787126100000023, 29.90712650000205, 29.96308720000161]",6,6,# # # # # #,None
142,0,142,142,6,,,,,,,3,FALSE,0,None,right,FALSE,2,1,0,enc,0,0,1,[],[],6,6,3 3 1 3 2 2,6
143,1.2158719,143,143,7,,,,,,,3,TRUE,0.5,acc,right,TRUE,2,1,3,ret,1,3,1,"['3', '3', '3', '1', '3', '2']","[36.73117579999962, 36.811083399999916, 36.963160100000096, 37.243119200000365, 37.611136200001056, 37.94704769999953]",6,6,# # # # # #,None
144,0,144,144,8,,,,,,,2,FALSE,0,None,right,FALSE,2,1,0,enc,0,0,1,[],[],6,6,1 2 2 2 4 1,4
145,9.6889022,145,145,9,,,,,,,2,TRUE,0.5,acc,right,TRUE,2,1,5,ret,1,5,1,"['2', '2', '2', '2', '4', '1']","[39.49833760000183, 47.50713689999975, 48.47520219999933, 48.63522000000012, 49.091075600001204, 49.18723980000141]",6,6,# # # # # #,None
146,0,146,146,10,,,,,,,3,FALSE,0,None,right,FALSE,2,1,0,enc,0,0,1,[],[],6,6,3 1 4 4 2 4,6
147,2.7040763,147,147,11,,,,,,,3,TRUE,0.5,acc,right,FALSE,2,1,6,ret,1,10,1,"['3', '1', '4', '4', '2', '4']","[56.17108830000143, 56.92309640000167, 57.211070699999254, 58.47515000000203, 58.72306590000153, 58.87516460000188]",6,6,# # # # # #,None
148,0,148,148,12,,,,,,,3,FALSE,0,None,right,FALSE,2,1,0,enc,0,0,0,[],[],6,6,3 4 1 3 4 2,6
149,4.3759738,149,149,13,,,,,,,3,TRUE,0.5,acc,right,FALSE,2,1,6,ret,1,10,0,"['2', '4', '3', '1', '4', '3']","[66.55507059999945, 66.81110239999907, 67.40309799999886, 70.5311451000016, 70.74704790000033, 70.93104440000025]",6,6,# # # # # #,None
150,0,150,150,14,,,,,,,3,FALSE,0,None,right,FALSE,2,1,0,enc,0,0,0,[],[],6,6,1 2 1 3 1 1,6
151,1.9041738,151,151,15,,,,,,,3,TRUE,0.5,acc,right,FALSE,2,1,6,ret,1,10,0,"['1', '1', '3', '1', '2', '1']","[77.69903010000053, 77.86714260000008, 78.1072892000011, 79.3871164000011, 79.51511459999892, 79.60320390000197]",6,6,# # # # # #,None
152,0,152,152,16,,,,,,,2,FALSE,0,None,right,FALSE,2,1,0,enc,0,0,1,[],[],6,6,2 1 4 3 3 2,4
153,3.4401058,153,153,17,,,,,,,2,TRUE,0.5,acc,right,TRUE,2,1,5,ret,1,5,1,"['2', '1', '4', '3', '2', '2']","[88.37905189999947, 88.66709260000061, 90.17104879999897, 90.44308060000185, 91.61910329999955, 91.81915769999978]",6,6,# # # # # #,None
154,0,154,154,18,,,,,,,2,FALSE,0,None,right,FALSE,2,1,0,enc,0,0,0,[],[],6,6,1 4 4 1 2 3,4
155,6.2239824,155,155,19,,,,,,,2,TRUE,0.5,acc,right,FALSE,2,1,6,ret,1,10,0,"['3', '2', '1', '4', '4', '1']","[100.77108809999845, 101.19513450000159, 102.75500960000136, 103.14707899999848, 106.92302500000005, 106.99507050000102]",6,6,# # # # # #,None
156,0,156,156,20,,,,,,,2,FALSE,0,None,right,FALSE,2,1,0,enc,0,0,0,[],[],6,6,2 1 2 3 4 4,4
157,4.1125142,157,157,21,,,,,,,2,TRUE,0.5,acc,right,FALSE,2,1,6,ret,1,10,0,"['4', '4', '3', '2', '1', '2']","[116.15494430000035, 116.35509010000169, 118.75512449999951, 118.92297690000123, 120.15496600000188, 120.26745849999861]",6,6,# # # # # #,None
158,0,158,158,22,,,,,,,3,FALSE,0,None,right,FALSE,2,1,0,enc,0,0,0,[],[],6,6,3 1 3 4 2 3,6
159,2.2245902,159,159,23,,,,,,,3,TRUE,0.5,acc,right,FALSE,2,1,6,ret,1,10,0,"['3', '2', '4', '3', '1', '3']","[128.98700879999888, 129.53103719999854, 129.9871177999994, 130.95500800000082, 131.03510879999885, 131.21159900000202]",6,6,# # # # # #,None
160,0,160,0,,,,,,,,2,FALSE,0,None,right,FALSE,2,1,0,enc,0,0,1,[],[],7,6,2 4 4 2 1 3,4
161,4.8242696,161,1,,,,,,,,2,TRUE,0.5,acc,right,TRUE,2,1,5,ret,1,5,1,"['2', '3', '4', '2', '1', '3']","[6.9951111000009405, 7.539098599998397, 10.075052299998788, 11.22707889999947, 11.747082199999568, 11.819380699998874]",7,6,# # # # # #,None
162,0,162,2,,,,,,,,3,FALSE,0,None,right,FALSE,2,1,0,enc,0,0,1,[],[],7,6,2 4 3 1 4 4,6
163,1.376052,163,3,,,,,,,,3,TRUE,0.5,acc,right,FALSE,2,1,6,ret,1,10,1,"['2', '4', '3', '1', '4', '4']","[18.259052199999132, 18.538952300001256, 18.995024200001353, 19.203072500000417, 19.442972000000736, 19.63510419999875]",7,6,# # # # # #,None
164,0,164,4,,,,,,,,3,FALSE,0,None,right,FALSE,2,1,0,enc,0,0,1,[],[],7,6,3 3 4 4 4 1,6
165,1.8078492,165,5,,,,,,,,3,TRUE,0.5,acc,right,FALSE,2,1,6,ret,1,10,1,"['3', '3', '4', '4', '4', '1']","[26.963139200001024, 27.15506749999986, 27.41906530000051, 28.114924199999223, 28.491006699998252, 28.770988399999624]",7,6,# # # # # #,None
166,0,166,6,,,,,,,,2,FALSE,0,None,right,FALSE,2,1,0,enc,0,0,1,[],[],7,6,4 1 2 3 3 2,4
167,1.071919,167,7,,,,,,,,2,TRUE,0.5,acc,right,FALSE,2,1,6,ret,1,10,1,"['4', '1', '2', '3', '3', '2']","[37.92307609999989, 38.18692870000086, 38.435010400000465, 38.643029700000625, 38.867007299999386, 38.99499509999805]",7,6,# # # # # #,None
168,0,168,8,,,,,,,,3,FALSE,0,None,right,FALSE,2,1,0,enc,0,0,0,[],[],7,6,3 4 2 1 2 2,6
169,1.9039776,169,9,,,,,,,,3,TRUE,0.5,acc,right,FALSE,2,1,6,ret,1,10,0,"['2', '2', '1', '2', '4', '3']","[46.00303830000121, 46.14701929999865, 46.31496569999945, 47.56302969999888, 47.731008999999176, 47.90701590000026]",7,6,# # # # # #,None
170,0,170,10,,,,,,,,2,FALSE,0,None,right,FALSE,2,1,0,enc,0,0,0,[],[],7,6,4 4 3 4 3 3,4
171,6.9915983,171,11,,,,,,,,2,TRUE,0.5,acc,right,TRUE,2,1,4,ret,1,4,0,"['4', '4', '4', '3', '4', '4']","[56.55547790000128, 56.75500050000119, 61.53097909999997, 61.69102560000101, 63.38701099999889, 63.54707620000045]",7,6,# # # # # #,None
172,0,172,12,,,,,,,,2,FALSE,0,None,right,FALSE,2,1,0,enc,0,0,0,[],[],7,6,4 1 4 1 4 2,4
173,1.5680308,173,13,,,,,,,,2,TRUE,0.5,acc,right,FALSE,2,1,6,ret,1,10,0,"['2', '4', '1', '4', '1', '4']","[73.61894190000021, 73.75484710000092, 74.84294750000117, 74.92290890000004, 75.13100779999877, 75.1869727000012]",7,6,# # # # # #,None
174,0,174,14,,,,,,,,3,FALSE,0,None,right,FALSE,2,1,0,enc,0,0,1,[],[],7,6,2 1 4 3 1 2,6
175,1.0080691,175,15,,,,,,,,3,TRUE,0.5,acc,right,FALSE,2,1,6,ret,1,10,1,"['2', '1', '4', '3', '1', '2']","[82.15493029999925, 82.38703979999991, 82.59500929999922, 82.85102489999917, 83.05092280000099, 83.16299939999953]",7,6,# # # # # #,None
176,0,176,16,,,,,,,,2,FALSE,0,None,right,FALSE,2,1,0,enc,0,0,0,[],[],7,6,4 4 4 2 4 2,4
177,1.0159685,177,17,,,,,,,,2,TRUE,0.5,acc,right,FALSE,2,1,6,ret,1,10,0,"['2', '4', '2', '4', '4', '4']","[91.91498409999986, 92.0189274000004, 92.42702999999892, 92.49087900000086, 92.76298509999833, 92.93095259999973]",7,6,# # # # # #,None
178,0,178,18,,,,,,,,3,FALSE,0,None,right,FALSE,2,1,0,enc,0,0,0,[],[],7,6,3 1 4 4 2 4,6
179,2.8080022,179,19,,,,,,,,3,TRUE,0.5,acc,right,FALSE,2,1,6,ret,1,10,0,"['4', '2', '4', '4', '1', '3']","[100.33091060000152, 100.56293039999946, 100.74693149999803, 102.60296480000034, 102.7788944999993, 103.13891280000098]",7,6,# # # # # #,None
180,0,180,20,,,,,,,,3,FALSE,0,None,right,FALSE,2,1,0,enc,0,0,0,[],[],7,6,1 4 2 2 3 4,6
181,4.311954,181,21,,,,,,,,3,TRUE,0.5,acc,right,TRUE,2,1,4,ret,1,4,0,"['4', '3', '2', '4', '2', '1']","[110.37092610000036, 110.69893279999815, 111.03494510000019, 114.29094400000031, 114.458942199999, 114.68288010000106]",7,6,# # # # # #,None
182,0,182,22,,,,,,,,2,FALSE,0,None,right,FALSE,2,1,0,enc,0,0,1,[],[],7,6,1 1 2 1 1 3,4
183,1.1200529,183,23,,,,,,,,2,TRUE,0.5,acc,right,FALSE,2,1,6,ret,1,10,1,"['1', '1', '2', '1', '1', '3']","[123.1069318000009, 123.266865900001, 123.46686109999791, 123.63497279999865, 123.83486410000114, 124.22698469999887]",7,6,# # # # # #,None
184,0,0,,,,,,,,,2,FALSE,0,None,right,FALSE,2,1,0,enc,0,0,1,[],[],8,6,4 2 3 2 2 2,4
185,1.288034,1,,,,,,,,,2,TRUE,0.5,acc,right,FALSE,2,1,6,ret,1,10,1,"['4', '2', '3', '2', '2', '2']","[6.734031299998605, 7.046087300001091, 7.406037699998706, 7.6380031000007875, 7.869884399999137, 8.022065299999667]",8,6,# # # # # #,None
186,0,2,,,,,,,,,2,FALSE,0,None,right,FALSE,2,1,0,enc,0,0,1,[],[],8,6,1 1 1 3 1 4,4
187,0.840717,3,,,,,,,,,2,TRUE,0.5,acc,right,FALSE,2,1,6,ret,1,10,1,"['1', '1', '1', '3', '1', '4']","[16.48595700000078, 16.661829799999396, 16.877916699999332, 17.06195619999926, 17.2141120999986, 17.32667399999991]",8,6,# # # # # #,None
188,0,4,,,,,,,,,2,FALSE,0,None,right,FALSE,2,1,0,enc,0,0,0,[],[],8,6,2 1 2 1 3 4,4
189,1.560025,5,,,,,,,,,2,TRUE,0.5,acc,right,FALSE,2,1,6,ret,1,10,0,"['4', '3', '1', '2', '1', '2']","[26.901976000001014, 27.26192660000015, 28.13413419999779, 28.19791229999828, 28.397890199998074, 28.462000999999873]",8,6,# # # # # #,None
190,0,6,,,,,,,,,2,FALSE,0,None,right,FALSE,2,1,0,enc,0,0,1,[],[],8,6,1 3 1 4 2 3,4
191,1.967931,7,,,,,,,,,2,TRUE,0.5,acc,right,FALSE,2,1,6,ret,1,10,1,"['1', '3', '1', '4', '2', '3']","[37.053959299999406, 37.39791549999791, 37.91082749999987, 38.150012199999765, 38.973925499998586, 39.02189029999863]",8,6,# # # # # #,None
192,0,8,,,,,,,,,3,FALSE,0,None,right,FALSE,2,1,0,enc,0,0,1,[],[],8,6,1 4 3 3 2 2,6
193,3.3041362,9,,,,,,,,,3,TRUE,0.5,acc,right,FALSE,2,1,6,ret,1,10,1,"['1', '4', '3', '3', '2', '2']","[46.17395319999923, 46.837910599999304, 47.10992239999905, 49.142010100000334, 49.3178674999981, 49.47808939999959]",8,6,# # # # # #,None
194,0,10,,,,,,,,,2,FALSE,0,None,right,FALSE,2,1,0,enc,0,0,0,[],[],8,6,4 3 3 4 4 1,4
195,5.0321495,11,,,,,,,,,2,TRUE,0.5,acc,right,TRUE,2,1,5,ret,1,5,0,"['1', '4', '3', '3', '3', '4']","[59.37398630000098, 59.44608159999916, 59.478675099999236, 62.254199700000754, 64.2538472999986, 64.4061357999999]",8,6,# # # # # #,None
196,0,12,,,,,,,,,2,FALSE,0,None,right,FALSE,2,1,0,enc,0,0,0,[],[],8,6,3 1 3 2 4 2,4
197,3.93573,13,,,,,,,,,2,TRUE,0.5,acc,right,FALSE,2,1,6,ret,1,10,0,"['2', '4', '2', '3', '1', '3']","[73.60613480000029, 74.52770659999806, 76.31014909999794, 76.47004910000032, 77.4858525999989, 77.54186479999771]",8,6,# # # # # #,None
198,0,14,,,,,,,,,3,FALSE,0,None,right,FALSE,2,1,0,enc,0,0,1,[],[],8,6,1 3 2 3 3 3,6
199,1.0160567,15,,,,,,,,,3,TRUE,0.5,acc,right,FALSE,2,1,6,ret,1,10,1,"['1', '3', '2', '3', '3', '3']","[83.9498464999997, 84.14179589999912, 84.33387940000102, 84.52584659999775, 84.76745099999971, 84.96590319999814]",8,6,# # # # # #,None
200,0,16,,,,,,,,,3,FALSE,0,None,right,FALSE,2,1,0,enc,0,0,1,[],[],8,6,4 2 4 4 2 4,6
201,1.8157747,17,,,,,,,,,3,TRUE,0.5,acc,right,FALSE,2,1,6,ret,1,10,1,"['4', '2', '4', '4', '2', '4']","[91.84611289999884, 92.12587419999909, 92.33399899999858, 93.0618289999984, 93.4218879, 93.66188759999932]",8,6,# # # # # #,None
202,0,18,,,,,,,,,3,FALSE,0,None,right,FALSE,2,1,0,enc,0,0,0,[],[],8,6,1 2 2 3 1 1,6
203,3.0159743,19,,,,,,,,,3,TRUE,0.5,acc,right,FALSE,2,1,6,ret,1,10,0,"['1', '1', '3', '2', '2', '1']","[100.88583519999884, 101.07788810000056, 101.3259094999994, 103.60633619999862, 103.77380809999886, 103.90180949999922]",8,6,# # # # # #,None
204,0,20,,,,,,,,,3,FALSE,0,None,right,FALSE,2,1,0,enc,0,0,0,[],[],8,6,2 3 1 1 3 4,6
205,3.8400337,21,,,,,,,,,3,TRUE,0.5,acc,right,TRUE,2,1,4,ret,1,4,0,"['4', '3', '1', '1', '2', '4']","[112.96588960000008, 113.54183239999838, 114.07800959999804, 116.54210379999859, 116.59816610000053, 116.80592329999854]",8,6,# # # # # #,None
206,0,22,,,,,,,,,3,FALSE,0,None,right,FALSE,2,1,0,enc,0,0,0,[],[],8,6,4 3 2 2 1 3,6
207,6.1917845,23,,,,,,,,,3,TRUE,0.5,acc,right,TRUE,2,1,3,ret,1,3,0,"['4', '1', '2', '2', '4', '3']","[124.67010870000013, 124.9577578999997, 125.37386730000071, 130.0218485999976, 130.2378695999978, 130.86189319999903]",8,6,# # # # # #,None
