,Tn,MT,chunk,display_trial_feedback,feedback_dur,feedback_type,hand,is_error,item_dur,iti_dur,number_correct,phase,phase_type,points,recall_dir,response,response_time,run_number,seq_length,seq_str,trial_dur,P1,P2,P3,P4,P5,P6,IPI_0,IPI_1,IPI_2,IPI_3,IPI_4,IPI_5
0,0,0.0,3,False,0.0,None,right,False,2,1,0,enc,0,0,1,[],[],1,6,2 2 2 4 4 3,6,0.0,0.0,0.0,0.0,0.0,0.0,0,0.0,0.0,0.0,0.0,0.0
1,1,2.1680021000793204,3,True,0.5,acc,right,False,2,1,6,ret,1,10,1,"['2', '2', '2', '4', '4', '3']","[27.95520009996835, 28.22720990004018, 29.347199200070463, 29.79514940001536, 29.963158800033852, 30.123202200047672]",1,6,# # # # # #,None,27.95520009996835,28.22720990004018,29.347199200070463,29.79514940001536,29.963158800033852,30.123202200047672,21.45520009996835,0.27200980007182807,1.1199893000302836,0.4479501999448985,0.16800940001849085,0.16004340001381934
2,2,0.0,3,False,0.0,None,right,False,2,1,0,enc,0,0,1,[],[],1,6,1 3 1 3 1 2,6,0.0,0.0,0.0,0.0,0.0,0.0,0,0.0,0.0,0.0,0.0,0.0
3,3,1.1520142999943346,3,True,0.5,acc,right,False,2,1,6,ret,1,10,1,"['1', '3', '1', '3', '1', '2']","[36.939194999984466, 37.19513440004084, 37.41930880001746, 37.69925509998575, 37.98713130003307, 38.0912092999788]",1,6,# # # # # #,None,36.939194999984466,37.19513440004084,37.41930880001746,37.69925509998575,37.98713130003307,38.0912092999788,0.31599279993679374,0.25593940005637705,0.2241743999766186,0.27994629996828735,0.2878762000473216,0.10407799994572997
4,4,0.0,3,False,0.0,None,right,False,2,1,0,enc,0,0,0,[],[],1,6,4 1 4 3 4 3,6,0.0,0.0,0.0,0.0,0.0,0.0,0,0.0,0.0,0.0,0.0,0.0
5,5,1.3279166999273002,3,True,0.5,acc,right,False,2,1,6,ret,1,10,0,"['3', '4', '3', '4', '1', '4']","[45.16318540007342, 45.34718649997376, 45.54720480006654, 46.05918360000942, 46.291208400041796, 46.49110210000072]",1,6,# # # # # #,None,45.16318540007342,45.34718649997376,45.54720480006654,46.05918360000942,46.291208400041796,46.49110210000072,0.5719761000946164,0.18400109990034252,0.2000183000927791,0.5119787999428809,0.23202480003237724,0.19989369995892048
6,6,0.0,2,False,0.0,None,right,False,2,1,0,enc,0,0,1,[],[],1,6,4 3 4 1 4 4,4,0.0,0.0,0.0,0.0,0.0,0.0,0,0.0,0.0,0.0,0.0,0.0
7,7,1.2404172000242395,2,True,0.5,acc,right,False,2,1,6,ret,1,10,1,"['4', '3', '4', '1', '4', '4']","[55.379207400023006, 55.48315800004639, 55.98717740003485, 56.13971660006791, 56.459130199975334, 56.619624600047246]",1,6,# # # # # #,None,55.379207400023006,55.48315800004639,55.98717740003485,56.13971660006791,56.459130199975334,56.619624600047246,2.388105300022289,0.10395060002338141,0.504019399988465,0.1525392000330612,0.3194135999074206,0.1604944000719115
8,8,0.0,2,False,0.0,None,right,False,2,1,0,enc,0,0,0,[],[],1,6,4 1 3 3 1 4,4,0.0,0.0,0.0,0.0,0.0,0.0,0,0.0,0.0,0.0,0.0,0.0
9,9,8.511983399977908,2,True,0.5,acc,right,True,2,1,2,ret,1,2,0,"['4', '1', '1', '4', '3', '3']","[67.9391688000178, 68.10756140004378, 75.56320930004586, 75.70707910007332, 76.31522650003899, 76.4511521999957]",1,6,# # # # # #,None,67.9391688000178,68.10756140004378,75.56320930004586,75.70707910007332,76.31522650003899,76.4511521999957,4.819544199970551,0.16839260002598166,7.455647900002077,0.14386980002745986,0.6081473999656737,0.1359256999567151
10,10,0.0,2,False,0.0,None,right,False,2,1,0,enc,0,0,0,[],[],1,6,1 3 4 2 2 2,4,0.0,0.0,0.0,0.0,0.0,0.0,0,0.0,0.0,0.0,0.0,0.0
11,11,5.087923499988391,2,True,0.5,acc,right,True,2,1,4,ret,1,4,0,"['2', '2', '3', '4', '1', '1']","[85.5551698000636, 85.72315880004317, 89.56311980006285, 89.77911570004653, 90.44313629996032, 90.64309330005199]",1,6,# # # # # #,None,85.5551698000636,85.72315880004317,89.56311980006285,89.77911570004653,90.44313629996032,90.64309330005199,2.604017600067891,0.1679889999795705,3.8399610000196844,0.21599589998368174,0.6640205999137834,0.19995700009167194
12,12,0.0,3,False,0.0,None,right,False,2,1,0,enc,0,0,0,[],[],1,6,4 1 1 1 4 3,6,0.0,0.0,0.0,0.0,0.0,0.0,0,0.0,0.0,0.0,0.0,0.0
13,13,3.431840200093576,3,True,0.5,acc,right,True,2,1,4,ret,1,4,0,"['3', '4', '1', '3', '1', '1']","[97.69140869996045, 97.9470576000167, 98.19504210003652, 100.5872507999884, 100.89908720005769, 101.12324890005402]",1,6,# # # # # #,None,97.69140869996045,97.9470576000167,98.19504210003652,100.5872507999884,100.89908720005769,101.12324890005402,0.5483153999084607,0.25564890005625784,0.2479845000198111,2.3922086999518797,0.31183640006929636,0.22416169999632984
14,14,0.0,2,False,0.0,None,right,False,2,1,0,enc,0,0,1,[],[],1,6,1 2 3 4 3 1,4,0.0,0.0,0.0,0.0,0.0,0.0,0,0.0,0.0,0.0,0.0,0.0
15,15,1.2638526000082493,2,True,0.5,acc,right,False,2,1,6,ret,1,10,1,"['1', '2', '3', '4', '3', '1']","[110.31517349998467, 110.44365919998381, 110.85913680004887, 110.97907750005834, 111.38710930000525, 111.57902609999292]",1,6,# # # # # #,None,110.31517349998467,110.44365919998381,110.85913680004887,110.97907750005834,111.38710930000525,111.57902609999292,2.691924599930644,0.12848569999914616,0.41547760006505996,0.11994070000946522,0.40803179994691163,0.1919167999876663
16,0,0.0,3,False,0.0,None,right,False,2,1,0,enc,0,0,1,[],[],1,6,4 2 2 1 1 2,6,0.0,0.0,0.0,0.0,0.0,0.0,0,0.0,0.0,0.0,0.0,0.0
17,1,1.0480483999708667,3,True,0.5,acc,right,False,2,1,6,ret,1,10,1,"['4', '2', '2', '1', '1', '2']","[5.571914199972525, 5.827885699924082, 5.9799282000167295, 6.316213699989021, 6.459904299932532, 6.619962599943392]",1,6,# # # # # #,None,5.571914199972525,5.827885699924082,5.9799282000167295,6.316213699989021,6.459904299932532,6.619962599943392,NaN,0.2559714999515563,0.15204250009264797,0.3362854999722913,0.1436905999435112,0.16005830001085997
18,2,0.0,3,False,0.0,None,right,False,2,1,0,enc,0,0,1,[],[],1,6,3 3 2 2 3 3,6,0.0,0.0,0.0,0.0,0.0,0.0,0,0.0,0.0,0.0,0.0,0.0
19,3,0.9843311000149696,3,True,0.5,acc,right,True,2,1,5,ret,1,5,1,"['3', '3', '2', '2', '2', '3']","[13.33987329993397, 13.483915399992839, 13.723934900015593, 14.051986899925396, 14.188004299998283, 14.32420439994894]",1,6,# # # # # #,None,13.33987329993397,13.483915399992839,13.723934900015593,14.051986899925396,14.188004299998283,14.32420439994894,0.219910699990578,0.14404210005886853,0.24001950002275407,0.32805199990980327,0.13601740007288754,0.1362000999506563
20,4,0.0,2,False,0.0,None,right,False,2,1,0,enc,0,0,0,[],[],1,6,1 4 4 2 2 1,4,0.0,0.0,0.0,0.0,0.0,0.0,0,0.0,0.0,0.0,0.0,0.0
21,5,6.10395429993514,2,True,0.5,acc,right,True,2,1,3,ret,1,3,0,"['1', '2', '4', '1', '2', '1']","[23.515989699983038, 23.707911300007254, 24.676131399930455, 24.963919700006954, 29.548923399997875, 29.619943999918178]",1,6,# # # # # #,None,23.515989699983038,23.707911300007254,24.676131399930455,24.963919700006954,29.548923399997875,29.619943999918178,2.6917853000340983,0.19192160002421588,0.9682200999232009,0.2877883000764996,4.585003699990921,0.07102059992030263
22,6,0.0,3,False,0.0,None,right,False,2,1,0,enc,0,0,0,[],[],1,6,2 3 3 2 4 1,6,0.0,0.0,0.0,0.0,0.0,0.0,0,0.0,0.0,0.0,0.0,0.0
23,7,4.088475299999119,3,True,0.5,acc,right,False,2,1,6,ret,1,10,0,"['1', '4', '2', '3', '3', '2']","[39.587992499931715, 40.37189969990868, 40.691915299976245, 42.98784209997393, 43.33186759997625, 43.67646779993083]",1,6,# # # # # #,None,39.587992499931715,40.37189969990868,40.691915299976245,42.98784209997393,43.33186759997625,43.67646779993083,3.4680485000135377,0.7839071999769658,0.32001560006756335,2.2959267999976873,0.34402550000231713,0.34460019995458424
24,8,0.0,2,False,0.0,None,right,False,2,1,0,enc,0,0,0,[],[],1,6,4 3 2 1 3 4,4,0.0,0.0,0.0,0.0,0.0,0.0,0,0.0,0.0,0.0,0.0,0.0
25,9,5.367953900014982,2,True,0.5,acc,right,False,2,1,6,ret,1,10,0,"['4', '3', '1', '2', '3', '4']","[52.89996539999265, 53.13987159996759, 55.771911099902354, 56.148883200017735, 57.97189059993252, 58.267919300007634]",1,6,# # # # # #,None,52.89996539999265,53.13987159996759,55.771911099902354,56.148883200017735,57.97189059993252,58.267919300007634,2.723497600061819,0.23990619997493923,2.6320394999347627,0.3769721001153812,1.8230073999147862,0.2960287000751123
26,10,0.0,2,False,0.0,None,right,False,2,1,0,enc,0,0,1,[],[],1,6,4 3 3 1 1 2,4,0.0,0.0,0.0,0.0,0.0,0.0,0,0.0,0.0,0.0,0.0,0.0
27,11,1.6160111000062898,2,True,0.5,acc,right,True,2,1,5,ret,1,5,1,"['4', '3', '3', '1', '3', '2']","[67.1638598999707, 67.32392419991083, 67.723879499943, 68.01189149997663, 68.53993349999655, 68.77987099997699]",1,6,# # # # # #,None,67.1638598999707,67.32392419991083,67.723879499943,68.01189149997663,68.53993349999655,68.77987099997699,2.395940599963069,0.1600642999401316,0.3999553000321612,0.2880120000336319,0.5280420000199229,0.23993749998044223
28,12,0.0,3,False,0.0,None,right,False,2,1,0,enc,0,0,0,[],[],1,6,2 3 4 2 2 1,6,0.0,0.0,0.0,0.0,0.0,0.0,0,0.0,0.0,0.0,0.0,0.0
29,13,2.519920499995352,3,True,0.5,acc,right,False,2,1,6,ret,1,10,0,"['1', '2', '2', '4', '3', '2']","[75.85190419992432, 76.12383900000714, 76.43587019992992, 77.84388749999925, 78.09182420000434, 78.37182469991967]",1,6,# # # # # #,None,75.85190419992432,76.12383900000714,76.43587019992992,77.84388749999925,78.09182420000434,78.37182469991967,0.5720331999473274,0.2719348000828177,0.31203119992278516,1.4080173000693321,0.24793670000508428,0.2800004999153316
30,14,0.0,2,False,0.0,None,right,False,2,1,0,enc,0,0,1,[],[],1,6,4 2 3 4 2 1,4,0.0,0.0,0.0,0.0,0.0,0.0,0,0.0,0.0,0.0,0.0,0.0
31,15,4.767930299974979,2,True,0.5,acc,right,True,2,1,2,ret,1,2,1,"['4', '3', '2', '1', '4', '1']","[88.29190079995897, 88.53189390001353, 89.81186679995153, 90.33190669992473, 92.72382630000357, 93.05983109993394]",1,6,# # # # # #,None,88.29190079995897,88.53189390001353,89.81186679995153,90.33190669992473,92.72382630000357,93.05983109993394,3.420076100039296,0.2399931000545621,1.2799728999380022,0.5200398999731988,2.391919600078836,0.3360047999303788
32,16,0.0,2,False,0.0,None,right,False,2,1,0,enc,0,0,1,[],[],1,6,1 4 1 3 2 4,4,0.0,0.0,0.0,0.0,0.0,0.0,0,0.0,0.0,0.0,0.0,0.0
33,17,3.2561389999464154,2,True,0.5,acc,right,True,2,1,3,ret,1,3,1,"['1', '4', '2', '3', '4', '1']","[101.83575059997384, 102.19584810000379, 103.00383659999352, 103.26783109991811, 104.79609099996742, 105.09188959992025]",1,6,# # # # # #,None,101.83575059997384,102.19584810000379,103.00383659999352,103.26783109991811,104.79609099996742,105.09188959992025,2.2759195000398904,0.36009750002995133,0.8079884999897331,0.2639944999245927,1.5282599000493065,0.29579859995283186
34,18,0.0,3,False,0.0,None,right,False,2,1,0,enc,0,0,0,[],[],1,6,2 3 3 3 3 4,6,0.0,0.0,0.0,0.0,0.0,0.0,0,0.0,0.0,0.0,0.0,0.0
35,19,2.471948300022632,3,True,0.5,acc,right,False,2,1,6,ret,1,10,0,"['4', '3', '3', '3', '3', '2']","[112.69188039994333, 112.95581199997105, 113.21193439990748, 114.60383339994587, 114.89978360000532, 115.16382869996596]",1,6,# # # # # #,None,112.69188039994333,112.95581199997105,113.21193439990748,114.60383339994587,114.89978360000532,115.16382869996596,1.099990800023079,0.26393160002771765,0.25612239993643016,1.3918990000383928,0.29595020005945116,0.2640450999606401
36,20,0.0,3,False,0.0,None,right,False,2,1,0,enc,0,0,1,[],[],1,6,1 1 3 2 2 4,6,0.0,0.0,0.0,0.0,0.0,0.0,0,0.0,0.0,0.0,0.0,0.0
37,21,4.615879999939351,3,True,0.5,acc,right,False,2,1,6,ret,1,10,1,"['1', '1', '3', '2', '2', '4']","[121.95594979997259, 122.1077854000032, 122.75583199993707, 123.6198779999977, 126.14787439990323, 126.57182979991194]",1,6,# # # # # #,None,121.95594979997259,122.1077854000032,122.75583199993707,123.6198779999977,126.14787439990323,126.57182979991194,0.29212110000662506,0.15183560003060848,0.6480465999338776,0.8640460000606254,2.5279963999055326,0.42395540000870824
38,22,0.0,2,False,0.0,None,right,False,2,1,0,enc,0,0,0,[],[],1,6,4 1 1 1 4 4,4,0.0,0.0,0.0,0.0,0.0,0.0,0,0.0,0.0,0.0,0.0,0.0
39,23,2.7039428999414667,2,True,0.5,acc,right,False,2,1,6,ret,1,10,0,"['4', '4', '1', '1', '1', '4']","[136.3958249000134, 136.75580909999553, 137.61986979993526, 137.9558071999345, 138.4117931999499, 139.09976779995486]",1,6,# # # # # #,None,136.3958249000134,136.75580909999553,137.61986979993526,137.9558071999345,138.4117931999499,139.09976779995486,3.323995100101456,0.3599841999821365,0.8640606999397278,0.33593739999923855,0.45598600001540035,0.6879746000049636
40,0,0.0,3,False,0.0,None,right,False,2,1,0,enc,0,0,1,[],[],2,6,3 2 2 3 2 3,6,0.0,0.0,0.0,0.0,0.0,0.0,0,0.0,0.0,0.0,0.0,0.0
41,1,1.144153399975039,3,True,0.5,acc,right,False,2,1,6,ret,1,10,1,"['3', '2', '2', '3', '2', '3']","[5.1031040999805555, 5.33511629991699, 5.535015699919313, 5.887038699933328, 6.087033299962059, 6.2472574999555945]",2,6,# # # # # #,None,5.1031040999805555,5.33511629991699,5.535015699919313,5.887038699933328,6.087033299962059,6.2472574999555945,NaN,0.23201219993643463,0.1998994000023231,0.35202300001401454,0.19999460002873093,0.16022419999353588
42,2,0.0,2,False,0.0,None,right,False,2,1,0,enc,0,0,1,[],[],2,6,2 4 4 4 4 1,4,0.0,0.0,0.0,0.0,0.0,0.0,0,0.0,0.0,0.0,0.0,0.0
43,3,1.2160872000968084,2,True,0.5,acc,right,False,2,1,6,ret,1,10,1,"['2', '4', '4', '4', '4', '1']","[15.151055699912831, 15.40800329996273, 15.823072099941783, 15.999103299924172, 16.22304849990178, 16.36714290000964]",2,6,# # # # # #,None,15.151055699912831,15.40800329996273,15.823072099941783,15.999103299924172,16.22304849990178,16.36714290000964,2.4037981999572366,0.25694760004989803,0.41506879997905344,0.1760311999823898,0.22394519997760653,0.14409440010786057
44,4,0.0,3,False,0.0,None,right,False,2,1,0,enc,0,0,1,[],[],2,6,1 4 1 4 4 3,6,0.0,0.0,0.0,0.0,0.0,0.0,0,0.0,0.0,0.0,0.0,0.0
45,5,2.2718836000422016,3,True,0.5,acc,right,False,2,1,6,ret,1,10,1,"['1', '4', '1', '4', '4', '3']","[23.103203799924813, 23.73511739994865, 24.0470816999441, 24.559077799902298, 24.879080999991857, 25.375087399967015]",2,6,# # # # # #,None,23.103203799924813,23.73511739994865,24.0470816999441,24.559077799902298,24.879080999991857,25.375087399967015,0.23606089991517365,0.6319136000238359,0.31196429999545217,0.5119960999581963,0.32000320008955896,0.4960063999751583
46,6,0.0,3,False,0.0,None,right,False,2,1,0,enc,0,0,0,[],[],2,6,1 3 1 3 1 3,6,0.0,0.0,0.0,0.0,0.0,0.0,0,0.0,0.0,0.0,0.0,0.0
47,7,3.1439470000332217,3,True,0.5,acc,right,False,2,1,6,ret,1,10,0,"['3', '1', '3', '1', '3', '1']","[32.535127399954945, 32.83117999997921, 33.11920559999999, 34.767269899952225, 35.37506300001405, 35.67907439998817]",2,6,# # # # # #,None,32.535127399954945,32.83117999997921,33.11920559999999,34.767269899952225,35.37506300001405,35.67907439998817,0.6600399999879301,0.29605260002426803,0.2880256000207737,1.6480642999522388,0.6077931000618264,0.3040113999741152
48,8,0.0,2,False,0.0,None,right,False,2,1,0,enc,0,0,0,[],[],2,6,2 1 4 4 4 2,4,0.0,0.0,0.0,0.0,0.0,0.0,0,0.0,0.0,0.0,0.0,0.0
49,9,4.1039193000178775,2,True,0.5,acc,right,False,2,1,6,ret,1,10,0,"['2', '4', '4', '4', '1', '2']","[45.16712669993285, 45.64770619990304, 47.007190299918875, 47.359175399993546, 48.95923049992416, 49.27104599995073]",2,6,# # # # # #,None,45.16712669993285,45.64770619990304,47.007190299918875,47.359175399993546,48.95923049992416,49.27104599995073,2.988052299944684,0.4805794999701902,1.359484100015834,0.3519851000746712,1.6000550999306142,0.31181550002656877
50,10,0.0,3,False,0.0,None,right,False,2,1,0,enc,0,0,0,[],[],2,6,3 3 4 1 2 3,6,0.0,0.0,0.0,0.0,0.0,0.0,0,0.0,0.0,0.0,0.0,0.0
51,11,2.767959299962968,3,True,0.5,acc,right,False,2,1,6,ret,1,10,0,"['3', '2', '1', '4', '3', '3']","[56.62316419999115, 56.82319099991582, 57.08711849991232, 58.80715629993938, 59.087111399974674, 59.39112349995412]",2,6,# # # # # #,None,56.62316419999115,56.82319099991582,57.08711849991232,58.80715629993938,59.087111399974674,59.39112349995412,0.8521182000404224,0.20002679992467165,0.2639274999964982,1.7200378000270575,0.2799551000352949,0.30401209997944534
52,12,0.0,2,False,0.0,None,right,False,2,1,0,enc,0,0,0,[],[],2,6,4 2 2 2 3 1,4,0.0,0.0,0.0,0.0,0.0,0.0,0,0.0,0.0,0.0,0.0,0.0
53,13,3.3520367000019182,2,True,0.5,acc,right,False,2,1,6,ret,1,10,0,"['1', '3', '2', '2', '2', '4']","[68.28704869991634, 68.52701550000347, 70.23104989994317, 70.52708949998487, 71.359001899953, 71.63908539991826]",2,6,# # # # # #,None,68.28704869991634,68.52701550000347,70.23104989994317,70.52708949998487,71.359001899953,71.63908539991826,2.395925199962221,0.23996680008713156,1.704034399939701,0.29603960004169494,0.8319123999681324,0.28008349996525794
54,14,0.0,3,False,0.0,None,right,False,2,1,0,enc,0,0,1,[],[],2,6,3 2 2 1 1 4,6,0.0,0.0,0.0,0.0,0.0,0.0,0,0.0,0.0,0.0,0.0,0.0
55,15,1.2001743000000715,3,True,0.5,acc,right,False,2,1,6,ret,1,10,1,"['3', '2', '2', '1', '1', '4']","[78.76687549997587, 79.02298409992363, 79.22295139997732, 79.50308339996263, 79.71901469992008, 79.96704979997594]",2,6,# # # # # #,None,78.76687549997587,79.02298409992363,79.22295139997732,79.50308339996263,79.71901469992008,79.96704979997594,0.6277901000576094,0.25610859994776547,0.1999673000536859,0.2801319999853149,0.21593129995744675,0.2480351000558585
56,16,0.0,2,False,0.0,None,right,False,2,1,0,enc,0,0,0,[],[],2,6,4 3 2 1 2 2,4,0.0,0.0,0.0,0.0,0.0,0.0,0,0.0,0.0,0.0,0.0,0.0
57,17,3.704120399896056,2,True,0.5,acc,right,False,2,1,6,ret,1,10,0,"['2', '2', '1', '2', '3', '4']","[89.05484170001, 89.31099829997402, 89.99098889995366, 92.19906049990095, 92.45505459990818, 92.75896209990606]",2,6,# # # # # #,None,89.05484170001,89.31099829997402,89.99098889995366,92.19906049990095,92.45505459990818,92.75896209990606,2.5877919000340626,0.2561565999640152,0.6799905999796465,2.2080715999472886,0.25599410000722855,0.3039074999978766
58,18,0.0,2,False,0.0,None,right,False,2,1,0,enc,0,0,1,[],[],2,6,3 1 4 4 2 3,4,0.0,0.0,0.0,0.0,0.0,0.0,0,0.0,0.0,0.0,0.0,0.0
59,19,3.4000000000232835,2,True,0.5,acc,right,True,2,1,3,ret,1,3,1,"['3', '3', '4', '2', '1', '3']","[103.71099629998207, 103.95899809990078, 105.26298609992955, 105.53498849994503, 106.95898369990755, 107.11099630000535]",2,6,# # # # # #,None,103.71099629998207,103.95899809990078,105.26298609992955,105.53498849994503,106.95898369990755,107.11099630000535,4.452034200076014,0.24800179991871119,1.3039880000287667,0.2720024000154808,1.423995199962519,0.15201260009780526
60,20,0.0,3,False,0.0,None,right,False,2,1,0,enc,0,0,0,[],[],2,6,1 1 4 4 3 2,6,0.0,0.0,0.0,0.0,0.0,0.0,0,0.0,0.0,0.0,0.0,0.0
61,21,2.5992677999893203,3,True,0.5,acc,right,False,2,1,6,ret,1,10,0,"['2', '3', '4', '4', '1', '1']","[114.73562519997358, 114.9270220999606, 115.1670419999864, 116.70304359996226, 117.07095139997546, 117.3348929999629]",2,6,# # # # # #,None,114.73562519997358,114.9270220999606,115.1670419999864,116.70304359996226,117.07095139997546,117.3348929999629,1.1246288999682292,0.19139689998701215,0.24001990002579987,1.5360015999758616,0.36790780001319945,0.26394159998744726
62,22,0.0,2,False,0.0,None,right,False,2,1,0,enc,0,0,1,[],[],2,6,4 2 1 2 4 1,4,0.0,0.0,0.0,0.0,0.0,0.0,0,0.0,0.0,0.0,0.0,0.0
63,23,2.607635000022128,2,True,0.5,acc,right,True,2,1,4,ret,1,4,1,"['1', '2', '4', '2', '4', '1']","[128.8152791999746, 128.94295840000268, 130.15092699998058, 130.3269588999683, 131.15104579995386, 131.42291419999674]",2,6,# # # # # #,None,128.8152791999746,128.94295840000268,130.15092699998058,130.3269588999683,131.15104579995386,131.42291419999674,4.980386200011708,0.12767920002806932,1.207968599977903,0.17603189998771995,0.8240868999855593,0.2718684000428766
64,0,0.0,2,False,0.0,None,right,False,2,1,0,enc,0,0,1,[],[],3,6,1 3 3 1 2 3,4,0.0,0.0,0.0,0.0,0.0,0.0,0,0.0,0.0,0.0,0.0,0.0
65,1,1.6159779999870807,2,True,0.5,acc,right,False,2,1,6,ret,1,10,1,"['1', '3', '3', '1', '2', '3']","[7.128657100023702, 7.353172900038771, 7.968597700004466, 8.184643300017342, 8.488709599943832, 8.744635100010782]",3,6,# # # # # #,None,7.128657100023702,7.353172900038771,7.968597700004466,8.184643300017342,8.488709599943832,8.744635100010782,NaN,0.22451580001506954,0.6154247999656945,0.2160456000128761,0.3040662999264896,0.2559255000669509
66,2,0.0,3,False,0.0,None,right,False,2,1,0,enc,0,0,0,[],[],3,6,2 3 1 2 2 1,6,0.0,0.0,0.0,0.0,0.0,0.0,0,0.0,0.0,0.0,0.0,0.0
67,3,4.3760416000150135,3,True,0.5,acc,right,True,2,1,3,ret,1,3,0,"['1', '2', '2', '3', '2', '1']","[16.560596499941312, 16.928624099935405, 17.28871969995089, 19.296648900024593, 19.888749100035056, 20.936638099956326]",3,6,# # # # # #,None,16.560596499941312,16.928624099935405,17.28871969995089,19.296648900024593,19.888749100035056,20.936638099956326,1.3159613999305293,0.3680275999940932,0.3600956000154838,2.007929200073704,0.5921002000104636,1.0478889999212697
68,4,0.0,3,False,0.0,None,right,False,2,1,0,enc,0,0,1,[],[],3,6,4 1 3 2 2 1,6,0.0,0.0,0.0,0.0,0.0,0.0,0,0.0,0.0,0.0,0.0,0.0
69,5,1.464110599947162,3,True,0.5,acc,right,False,2,1,6,ret,1,10,1,"['4', '1', '3', '2', '2', '1']","[27.728642200003378, 28.072676899959333, 28.480658899992704, 28.832631699973717, 28.976628999924287, 29.19275279995054]",3,6,# # # # # #,None,27.728642200003378,28.072676899959333,28.480658899992704,28.832631699973717,28.976628999924287,29.19275279995054,0.2920041000470519,0.34403469995595515,0.40798200003337115,0.35197279998101294,0.14399729995056987,0.21612380002625287
70,6,0.0,2,False,0.0,None,right,False,2,1,0,enc,0,0,0,[],[],3,6,3 4 4 3 4 1,4,0.0,0.0,0.0,0.0,0.0,0.0,0,0.0,0.0,0.0,0.0,0.0
71,7,6.816092199995183,2,True,0.5,acc,right,False,2,1,6,ret,1,10,0,"['1', '4', '3', '4', '4', '3']","[38.17666330002248, 38.528779099928215, 40.57672589994036, 40.87260060000699, 44.60076419997495, 44.992755500017665]",3,6,# # # # # #,None,38.17666330002248,38.528779099928215,40.57672589994036,40.87260060000699,44.60076419997495,44.992755500017665,2.483910500071943,0.3521157999057323,2.0479468000121415,0.2958747000666335,3.7281635999679565,0.39199130004271865
72,8,0.0,3,False,0.0,None,right,False,2,1,0,enc,0,0,1,[],[],3,6,1 2 2 4 4 3,6,0.0,0.0,0.0,0.0,0.0,0.0,0,0.0,0.0,0.0,0.0,0.0
73,9,1.663950499962084,3,True,0.5,acc,right,False,2,1,6,ret,1,10,1,"['1', '2', '2', '4', '4', '3']","[51.48067159997299, 51.768584799952805, 52.06463099992834, 52.59263909992296, 52.86466249998193, 53.14462209993508]",3,6,# # # # # #,None,51.48067159997299,51.768584799952805,52.06463099992834,52.59263909992296,52.86466249998193,53.14462209993508,-0.012083900044672191,0.2879131999798119,0.2960461999755353,0.5280080999946222,0.27202340005896986,0.2799595999531448
74,10,0.0,2,False,0.0,None,right,False,2,1,0,enc,0,0,0,[],[],3,6,4 4 3 2 3 3,4,0.0,0.0,0.0,0.0,0.0,0.0,0,0.0,0.0,0.0,0.0,0.0
75,11,2.248053299961612,2,True,0.5,acc,right,False,2,1,6,ret,1,10,0,"['3', '3', '2', '3', '4', '4']","[62.25662050000392, 62.40856280003209, 63.82452629995532, 63.92856789997313, 64.33666859997902, 64.50467379996553]",3,6,# # # # # #,None,62.25662050000392,62.40856280003209,63.82452629995532,63.92856789997313,64.33666859997902,64.50467379996553,2.611998400068842,0.15194230002816767,1.4159634999232367,0.10404160001780838,0.40810070000588894,0.16800519998650998
76,12,0.0,3,False,0.0,None,right,False,2,1,0,enc,0,0,0,[],[],3,6,2 4 3 2 2 4,6,0.0,0.0,0.0,0.0,0.0,0.0,0,0.0,0.0,0.0,0.0,0.0
77,13,2.9443761000875384,3,True,0.5,acc,right,False,2,1,6,ret,1,10,0,"['4', '2', '2', '3', '4', '2']","[71.67246289993636, 71.9526170999743, 72.19263309997041, 73.76856280001812, 74.27259179996327, 74.6168390000239]",3,6,# # # # # #,None,71.67246289993636,71.9526170999743,72.19263309997041,73.76856280001812,74.27259179996327,74.6168390000239,0.6677890999708325,0.28015420003794134,0.24001599999610335,1.575929700047709,0.5040289999451488,0.3442472000606358
78,14,0.0,2,False,0.0,None,right,False,2,1,0,enc,0,0,0,[],[],3,6,2 3 4 4 1 2,4,0.0,0.0,0.0,0.0,0.0,0.0,0,0.0,0.0,0.0,0.0,0.0
79,15,2.5842034999514,2,True,0.5,acc,right,False,2,1,6,ret,1,10,0,"['2', '1', '4', '4', '3', '2']","[83.62445130001288, 83.91271439997945, 84.79256450000685, 85.08070819999557, 86.04053170001134, 86.20865479996428]",3,6,# # # # # #,None,83.62445130001288,83.91271439997945,84.79256450000685,85.08070819999557,86.04053170001134,86.20865479996428,2.5076122999889776,0.28826309996657073,0.8798501000273973,0.2881436999887228,0.9598235000157729,0.16812309995293617
80,16,0.0,3,False,0.0,None,right,False,2,1,0,enc,0,0,1,[],[],3,6,2 1 1 2 4 1,6,0.0,0.0,0.0,0.0,0.0,0.0,0,0.0,0.0,0.0,0.0,0.0
81,17,1.5120031000114975,3,True,0.5,acc,right,False,2,1,6,ret,1,10,1,"['2', '1', '1', '2', '4', '1']","[93.02456549997441, 93.43252559995744, 93.66455049999058, 94.01666630001273, 94.28855910000857, 94.53656859998591]",3,6,# # # # # #,None,93.02456549997441,93.43252559995744,93.66455049999058,94.01666630001273,94.28855910000857,94.53656859998591,0.31591070001013577,0.40796009998302907,0.2320249000331387,0.3521158000221476,0.2718927999958396,0.24800949997734278
82,18,0.0,3,False,0.0,None,right,False,2,1,0,enc,0,0,0,[],[],3,6,3 2 1 1 3 2,6,0.0,0.0,0.0,0.0,0.0,0.0,0,0.0,0.0,0.0,0.0,0.0
83,19,1.9120880999835208,3,True,0.5,acc,right,False,2,1,6,ret,1,10,0,"['2', '3', '1', '1', '2', '3']","[101.46458989998791, 101.65653489995748, 101.91246349993162, 103.00048809999134, 103.20852190000005, 103.37667799997143]",3,6,# # # # # #,None,101.46458989998791,101.65653489995748,101.91246349993162,103.00048809999134,103.20852190000005,103.37667799997143,0.4280213000020012,0.19194499996956438,0.2559285999741405,1.0880246000597253,0.20803380000870675,0.1681560999713838
84,20,0.0,2,False,0.0,None,right,False,2,1,0,enc,0,0,1,[],[],3,6,1 4 1 4 2 1,4,0.0,0.0,0.0,0.0,0.0,0.0,0,0.0,0.0,0.0,0.0,0.0
85,21,1.3202025999780744,2,True,0.5,acc,right,False,2,1,6,ret,1,10,1,"['1', '4', '1', '4', '2', '1']","[111.88040949997958, 112.16056520002894, 112.41716259997338, 112.68058029992972, 112.94464180001523, 113.20061209995765]",3,6,# # # # # #,None,111.88040949997958,112.16056520002894,112.41716259997338,112.68058029992972,112.94464180001523,113.20061209995765,2.0037315000081435,0.2801557000493631,0.25659739994443953,0.2634176999563351,0.26406150008551776,0.25597029994241893
86,22,0.0,2,False,0.0,None,right,False,2,1,0,enc,0,0,1,[],[],3,6,1 3 2 1 1 3,4,0.0,0.0,0.0,0.0,0.0,0.0,0,0.0,0.0,0.0,0.0,0.0
87,23,1.264831000007689,2,True,0.5,acc,right,False,2,1,6,ret,1,10,1,"['1', '3', '2', '1', '1', '3']","[121.97644789994229, 122.20051470003091, 122.45655989996158, 122.69647930003703, 123.00156519992743, 123.24127889994998]",3,6,# # # # # #,None,121.97644789994229,122.20051470003091,122.45655989996158,122.69647930003703,123.00156519992743,123.24127889994998,2.275835799984634,0.22406680008862168,0.2560451999306679,0.23991940007545054,0.30508589989040047,0.23971370002254844
88,0,0.0,2,False,0.0,None,right,False,2,1,0,enc,0,0,1,[],[],4,6,4 4 1 3 2 2,4,0.0,0.0,0.0,0.0,0.0,0.0,0,0.0,0.0,0.0,0.0,0.0
89,1,3.0639289999380708,2,True,0.5,acc,right,True,2,1,5,ret,1,5,1,"['4', '4', '1', '3', '1', '2']","[8.23000670003239, 8.493970099953003, 9.84606819995679, 10.229974300018512, 11.03804290003609, 11.293935699970461]",4,6,# # # # # #,None,8.23000670003239,8.493970099953003,9.84606819995679,10.229974300018512,11.03804290003609,11.293935699970461,NaN,0.2639633999206126,1.3520981000037864,0.3839061000617221,0.8080686000175774,0.2558927999343723
90,2,0.0,2,False,0.0,None,right,False,2,1,0,enc,0,0,0,[],[],4,6,3 2 1 3 4 3,4,0.0,0.0,0.0,0.0,0.0,0.0,0,0.0,0.0,0.0,0.0,0.0
91,3,8.33587389998138,2,True,0.5,acc,right,True,2,1,4,ret,1,4,0,"['3', '4', '3', '1', '1', '1']","[20.31811110000126, 20.533954999991693, 25.64601779996883, 26.17405549995601, 27.74992560001556, 28.65398499998264]",4,6,# # # # # #,None,20.31811110000126,20.533954999991693,25.64601779996883,26.17405549995601,27.74992560001556,28.65398499998264,2.524175400030799,0.21584389999043196,5.112062799977139,0.5280376999871805,1.5758701000595465,0.9040593999670818
92,4,0.0,3,False,0.0,None,right,False,2,1,0,enc,0,0,0,[],[],4,6,2 3 2 3 1 2,6,0.0,0.0,0.0,0.0,0.0,0.0,0,0.0,0.0,0.0,0.0,0.0
93,5,5.1599414999363935,3,True,0.5,acc,right,True,2,1,4,ret,1,4,0,"['2', '1', '3', '2', '2', '3']","[35.5899646000471, 35.81400500005111, 36.06998609995935, 40.07795659999829, 40.34197199996561, 40.74990609998349]",4,6,# # # # # #,None,35.5899646000471,35.81400500005111,36.06998609995935,40.07795659999829,40.34197199996561,40.74990609998349,0.43597960006445646,0.22404040000401437,0.25598109990824014,4.007970500038937,0.26401539996732026,0.4079341000178829
94,6,0.0,3,False,0.0,None,right,False,2,1,0,enc,0,0,1,[],[],4,6,4 4 4 2 2 1,6,0.0,0.0,0.0,0.0,0.0,0.0,0,0.0,0.0,0.0,0.0,0.0
95,7,1.3120235999813303,3,True,0.5,acc,right,False,2,1,6,ret,1,10,1,"['4', '4', '4', '2', '2', '1']","[47.69402050005738, 47.90995939995628, 48.15803509997204, 48.5419490999775, 48.773939899983816, 49.00604410003871]",4,6,# # # # # #,None,47.69402050005738,47.90995939995628,48.15803509997204,48.5419490999775,48.773939899983816,49.00604410003871,0.4441144000738859,0.21593889989890158,0.24807570001576096,0.3839140000054613,0.2319908000063151,0.2321042000548914
96,8,0.0,2,False,0.0,None,right,False,2,1,0,enc,0,0,1,[],[],4,6,3 1 4 3 4 1,4,0.0,0.0,0.0,0.0,0.0,0.0,0,0.0,0.0,0.0,0.0,0.0
97,9,2.232008700026199,2,True,0.5,acc,right,True,2,1,5,ret,1,5,1,"['3', '1', '4', '3', '3', '1']","[58.173958700033836, 58.38194019999355, 58.773946700035594, 59.0298904000083, 60.182013600016944, 60.405967400060035]",4,6,# # # # # #,None,58.173958700033836,58.38194019999355,58.773946700035594,59.0298904000083,60.182013600016944,60.405967400060035,2.667914599995129,0.2079814999597147,0.3920065000420436,0.25594369997270405,1.1521232000086457,0.22395380004309118
98,10,0.0,3,False,0.0,None,right,False,2,1,0,enc,0,0,1,[],[],4,6,3 1 4 2 4 3,6,0.0,0.0,0.0,0.0,0.0,0.0,0,0.0,0.0,0.0,0.0,0.0
99,11,2.616068700095638,3,True,0.5,acc,right,False,2,1,6,ret,1,10,1,"['3', '1', '4', '2', '4', '3']","[67.42991249996703, 67.70988510001916, 67.99792969995178, 69.48594250006136, 69.80590999999549, 70.04598120006267]",4,6,# # # # # #,None,67.42991249996703,67.70988510001916,67.99792969995178,69.48594250006136,69.80590999999549,70.04598120006267,0.5239450999069959,0.2799726000521332,0.28804459993261844,1.4880128001095727,0.31996749993413687,0.24007120006717741
100,12,0.0,2,False,0.0,None,right,False,2,1,0,enc,0,0,0,[],[],4,6,2 1 4 1 4 4,4,0.0,0.0,0.0,0.0,0.0,0.0,0,0.0,0.0,0.0,0.0,0.0
101,13,4.520068000070751,2,True,0.5,acc,right,False,2,1,6,ret,1,10,0,"['4', '4', '1', '4', '1', '2']","[78.78985119995195, 78.94188820000272, 81.02988269994967, 81.24602079996839, 83.05393779999577, 83.3099192000227]",4,6,# # # # # #,None,78.78985119995195,78.94188820000272,81.02988269994967,81.24602079996839,83.05393779999577,83.3099192000227,2.2438699998892844,0.15203700005076826,2.0879944999469444,0.2161381000187248,1.8079170000273734,0.2559814000269398
102,14,0.0,3,False,0.0,None,right,False,2,1,0,enc,0,0,0,[],[],4,6,4 4 4 2 2 3,6,0.0,0.0,0.0,0.0,0.0,0.0,0,0.0,0.0,0.0,0.0,0.0
103,15,1.832019600085914,3,True,0.5,acc,right,False,2,1,6,ret,1,10,0,"['3', '2', '2', '4', '4', '4']","[90.6219676999608, 90.8698863000609, 91.13389080006164, 91.73398580006324, 92.23865049995948, 92.45398730004672]",4,6,# # # # # #,None,90.6219676999608,90.8698863000609,91.13389080006164,91.73398580006324,92.23865049995948,92.45398730004672,0.8120484999381006,0.2479186001000926,0.2640045000007376,0.6000950000016019,0.5046646998962387,0.21533680008724332
104,16,0.0,2,False,0.0,None,right,False,2,1,0,enc,0,0,1,[],[],4,6,4 2 3 2 4 3,4,0.0,0.0,0.0,0.0,0.0,0.0,0,0.0,0.0,0.0,0.0,0.0
105,17,1.5119286000262946,2,True,0.5,acc,right,False,2,1,6,ret,1,10,1,"['4', '2', '3', '2', '4', '3']","[101.58194850001018, 101.80588410003111, 102.00603499996942, 102.1978003999684, 102.8939089999767, 103.09387710003648]",4,6,# # # # # #,None,101.58194850001018,101.80588410003111,102.00603499996942,102.1978003999684,102.8939089999767,103.09387710003648,2.6279611999634653,0.22393560002092272,0.2001508999383077,0.19176539999898523,0.6961086000083014,0.1999681000597775
106,18,0.0,2,False,0.0,None,right,False,2,1,0,enc,0,0,0,[],[],4,6,4 4 2 3 3 4,4,0.0,0.0,0.0,0.0,0.0,0.0,0,0.0,0.0,0.0,0.0,0.0
107,19,2.455911400029436,2,True,0.5,acc,right,False,2,1,6,ret,1,10,0,"['4', '3', '3', '2', '4', '4']","[112.02998350001872, 112.25390440004412, 113.59787619998679, 113.85387810005341, 114.27774509997107, 114.48589490004815]",4,6,# # # # # #,None,112.02998350001872,112.25390440004412,113.59787619998679,113.85387810005341,114.27774509997107,114.48589490004815,2.4361063999822363,0.223920900025405,1.3439717999426648,0.2560019000666216,0.42386699991766363,0.20814980007708073
108,20,0.0,3,False,0.0,None,right,False,2,1,0,enc,0,0,1,[],[],4,6,3 3 3 1 1 2,6,0.0,0.0,0.0,0.0,0.0,0.0,0,0.0,0.0,0.0,0.0,0.0
109,21,1.3439042000100017,3,True,0.5,acc,right,False,2,1,6,ret,1,10,1,"['3', '3', '3', '1', '1', '2']","[121.19796729995869, 121.4061107999878, 121.62994440004695, 122.08586810005363, 122.34984030004125, 122.54187149996869]",4,6,# # # # # #,None,121.19796729995869,121.4061107999878,121.62994440004695,122.08586810005363,122.34984030004125,122.54187149996869,0.2120723999105394,0.20814350002910942,0.22383360005915165,0.4559237000066787,0.2639721999876201,0.19203119992744178
110,22,0.0,3,False,0.0,None,right,False,2,1,0,enc,0,0,0,[],[],4,6,1 4 3 2 2 1,6,0.0,0.0,0.0,0.0,0.0,0.0,0,0.0,0.0,0.0,0.0,0.0
111,23,2.9919854000909254,3,True,0.5,acc,right,True,2,1,4,ret,1,4,0,"['1', '2', '2', '4', '3', '1']","[130.27789599995594, 130.58189400006086, 130.85376069997437, 132.50180430000182, 132.79783479997423, 133.26988140004687]",4,6,# # # # # #,None,130.27789599995594,130.58189400006086,130.85376069997437,132.50180430000182,132.79783479997423,133.26988140004687,1.236024499987252,0.3039980001049116,0.27186669991351664,1.6480436000274494,0.29603049997240305,0.47204660007264465
112,0,0.0,3,False,0.0,None,right,False,2,1,0,enc,0,0,1,[],[],5,6,4 3 1 1 1 1,6,0.0,0.0,0.0,0.0,0.0,0.0,0,0.0,0.0,0.0,0.0,0.0
113,1,1.1202493000309914,3,True,0.5,acc,right,False,2,1,6,ret,1,10,1,"['4', '3', '1', '1', '1', '1']","[5.284728100057691, 5.51688530005049, 5.780821899999864, 6.068812800105661, 6.236781200044788, 6.404977400088683]",5,6,# # # # # #,None,5.284728100057691,5.51688530005049,5.780821899999864,6.068812800105661,6.236781200044788,6.404977400088683,NaN,0.23215719999279827,0.2639365999493748,0.28799090010579675,0.16796839993912727,0.16819620004389435
114,2,0.0,3,False,0.0,None,right,False,2,1,0,enc,0,0,1,[],[],5,6,2 4 2 3 2 4,6,0.0,0.0,0.0,0.0,0.0,0.0,0,0.0,0.0,0.0,0.0,0.0
115,3,1.6316607999615371,3,True,0.5,acc,right,False,2,1,6,ret,1,10,1,"['2', '4', '2', '3', '2', '4']","[13.421303300070576, 13.668999000103213, 13.892883200081997, 14.660772000090219, 14.844756600097753, 15.052964100032113]",5,6,# # # # # #,None,13.421303300070576,13.668999000103213,13.892883200081997,14.660772000090219,14.844756600097753,15.052964100032113,0.5163258999818936,0.24769570003263652,0.22388419997878373,0.7678888000082225,0.18398460000753403,0.20820749993436038
116,4,0.0,2,False,0.0,None,right,False,2,1,0,enc,0,0,1,[],[],5,6,4 3 3 2 2 2,4,0.0,0.0,0.0,0.0,0.0,0.0,0,0.0,0.0,0.0,0.0,0.0
117,5,2.679902200005017,2,True,0.5,acc,right,False,2,1,6,ret,1,10,1,"['4', '3', '3', '2', '2', '2']","[23.756861500092782, 23.989756500115618, 24.764778700075112, 25.068870400078595, 26.268850200111046, 26.4367637000978]",5,6,# # # # # #,None,23.756861500092782,23.989756500115618,24.764778700075112,25.068870400078595,26.268850200111046,26.4367637000978,2.2038974000606686,0.23289500002283603,0.7750221999594942,0.3040917000034824,1.1999798000324517,0.16791349998675287
118,6,0.0,2,False,0.0,None,right,False,2,1,0,enc,0,0,1,[],[],5,6,2 3 1 3 2 3,4,0.0,0.0,0.0,0.0,0.0,0.0,0,0.0,0.0,0.0,0.0,0.0
119,7,1.1688390000490472,2,True,0.5,acc,right,False,2,1,6,ret,1,10,1,"['2', '3', '1', '3', '2', '3']","[34.98064449999947, 35.13277840008959, 35.45273950009141, 35.628789300099015, 35.996855100034736, 36.14948350004852]",5,6,# # # # # #,None,34.98064449999947,35.13277840008959,35.45273950009141,35.628789300099015,35.996855100034736,36.14948350004852,2.0438807999016717,0.15213390009012073,0.31996110000181943,0.17604980000760406,0.36806579993572086,0.15262840001378208
120,8,0.0,2,False,0.0,None,right,False,2,1,0,enc,0,0,0,[],[],5,6,3 2 3 1 3 4,4,0.0,0.0,0.0,0.0,0.0,0.0,0,0.0,0.0,0.0,0.0,0.0
121,9,4.712100200005807,2,True,0.5,acc,right,False,2,1,6,ret,1,10,0,"['4', '3', '1', '3', '2', '3']","[45.15661820000969, 45.253647300065495, 47.900756300077774, 48.204769500065595, 49.58077250001952, 49.868718400015496]",5,6,# # # # # #,None,45.15661820000969,45.253647300065495,47.900756300077774,48.204769500065595,49.58077250001952,49.868718400015496,2.5071346999611706,0.09702910005580634,2.6471090000122786,0.3040131999878213,1.3760029999539256,0.2879458999959752
122,10,0.0,3,False,0.0,None,right,False,2,1,0,enc,0,0,0,[],[],5,6,1 3 1 4 1 1,6,0.0,0.0,0.0,0.0,0.0,0.0,0,0.0,0.0,0.0,0.0,0.0
123,11,2.24798650003504,3,True,0.5,acc,right,False,2,1,6,ret,1,10,0,"['1', '1', '4', '1', '3', '1']","[56.78885610005818, 56.94087000004947, 57.22873890004121, 58.452710700104944, 58.75676050002221, 59.03684260009322]",5,6,# # # # # #,None,56.78885610005818,56.94087000004947,57.22873890004121,58.452710700104944,58.75676050002221,59.03684260009322,0.42013770004268736,0.15201389999128878,0.2878688999917358,1.2239718000637367,0.3040497999172658,0.280082100071013
124,12,0.0,3,False,0.0,None,right,False,2,1,0,enc,0,0,0,[],[],5,6,3 3 4 4 1 1,6,0.0,0.0,0.0,0.0,0.0,0.0,0,0.0,0.0,0.0,0.0,0.0
125,13,6.567982999957168,3,True,0.5,acc,right,True,2,1,5,ret,1,5,0,"['1', '1', '4', '1', '3', '3']","[65.78875150007661, 67.11678570008371, 67.50074260006659, 71.3326059000101, 71.94155540002976, 72.35673450003378]",5,6,# # # # # #,None,65.78875150007661,67.11678570008371,67.50074260006659,71.3326059000101,71.94155540002976,72.35673450003378,0.25190889998339117,1.328034200007096,0.3839568999828771,3.8318632999435067,0.6089495000196621,0.4151791000040248
126,14,0.0,2,False,0.0,None,right,False,2,1,0,enc,0,0,0,[],[],5,6,1 4 1 2 4 4,4,0.0,0.0,0.0,0.0,0.0,0.0,0,0.0,0.0,0.0,0.0,0.0
127,15,4.176063299993984,2,True,0.5,acc,right,False,2,1,6,ret,1,10,0,"['4', '4', '2', '1', '4', '1']","[81.51669500011485, 81.69284590007737, 83.9246796000516, 84.09289460000582, 85.51686100009829, 85.69275830010884]",5,6,# # # # # #,None,81.51669500011485,81.69284590007737,83.9246796000516,84.09289460000582,85.51686100009829,85.69275830010884,2.6599605000810698,0.1761508999625221,2.2318336999742314,0.16821499995421618,1.4239664000924677,0.17589730001054704
128,16,0.0,2,False,0.0,None,right,False,2,1,0,enc,0,0,1,[],[],5,6,1 2 2 1 4 2,4,0.0,0.0,0.0,0.0,0.0,0.0,0,0.0,0.0,0.0,0.0,0.0
129,17,3.2318686000071466,2,True,0.5,acc,right,True,2,1,5,ret,1,5,1,"['1', '4', '2', '1', '4', '2']","[95.4127275000792, 96.15670380007941, 97.1167764000129, 97.31667520001065, 98.42074510001112, 98.64459610008635]",5,6,# # # # # #,None,95.4127275000792,96.15670380007941,97.1167764000129,97.31667520001065,98.42074510001112,98.64459610008635,3.2199691999703646,0.7439763000002131,0.9600725999334827,0.1998987999977544,1.104069900000468,0.2238510000752285
130,18,0.0,3,False,0.0,None,right,False,2,1,0,enc,0,0,1,[],[],5,6,2 2 1 3 1 3,6,0.0,0.0,0.0,0.0,0.0,0.0,0,0.0,0.0,0.0,0.0,0.0
131,19,1.1211332998936996,3,True,0.5,acc,right,False,2,1,6,ret,1,10,1,"['2', '2', '1', '3', '1', '3']","[105.57271190010943, 105.71678970009089, 105.93276520003565, 106.26865420001559, 106.50075040000957, 106.69384520000312]",5,6,# # # # # #,None,105.57271190010943,105.71678970009089,105.93276520003565,106.26865420001559,106.50075040000957,106.69384520000312,0.4281158000230789,0.14407779998145998,0.2159754999447614,0.33588899997994304,0.23209619999397546,0.19309479999355972
132,20,0.0,2,False,0.0,None,right,False,2,1,0,enc,0,0,0,[],[],5,6,3 4 2 3 1 4,4,0.0,0.0,0.0,0.0,0.0,0.0,0,0.0,0.0,0.0,0.0,0.0
133,21,5.119917400064878,2,True,0.5,acc,right,False,2,1,6,ret,1,10,0,"['4', '1', '3', '2', '4', '3']","[115.70074480003677, 116.1007204001071, 118.03658070007805, 118.27680530003272, 120.55662120005582, 120.82066220010165]",5,6,# # # # # #,None,115.70074480003677,116.1007204001071,118.03658070007805,118.27680530003272,120.55662120005582,120.82066220010165,2.5068996000336483,0.39997560007032007,1.9358602999709547,0.24022459995467216,2.2798159000230953,0.26404100004583597
134,22,0.0,3,False,0.0,None,right,False,2,1,0,enc,0,0,0,[],[],5,6,2 3 3 3 4 2,6,0.0,0.0,0.0,0.0,0.0,0.0,0,0.0,0.0,0.0,0.0,0.0
135,23,9.504068100010045,3,True,0.5,acc,right,True,2,1,3,ret,1,3,0,"['4', '3', '4', '3', '3', '2']","[128.18862070003524, 128.38866940001026, 132.88476860010996, 136.63663870003074, 137.1726799000753, 137.6926888000453]",5,6,# # # # # #,None,128.18862070003524,128.38866940001026,132.88476860010996,136.63663870003074,137.1726799000753,137.6926888000453,0.867958499933593,0.20004869997501373,4.496099200099707,3.7518700999207795,0.5360412000445649,0.5200088999699801
136,0,0.0,2,False,0.0,None,right,False,2,1,0,enc,0,0,1,[],[],6,6,2 3 1 1 2 3,4,0.0,0.0,0.0,0.0,0.0,0.0,0,0.0,0.0,0.0,0.0,0.0
137,1,1.192060100031085,2,True,0.5,acc,right,False,2,1,6,ret,1,10,1,"['2', '3', '1', '1', '2', '3']","[7.087467200006358, 7.175439600017853, 7.51953140005935, 7.687516800011508, 8.175474000046961, 8.279527300037444]",6,6,# # # # # #,None,7.087467200006358,7.175439600017853,7.51953140005935,7.687516800011508,8.175474000046961,8.279527300037444,NaN,0.08797240001149476,0.34409180004149675,0.16798539995215833,0.48795720003545284,0.10405329999048263
138,2,0.0,3,False,0.0,None,right,False,2,1,0,enc,0,0,1,[],[],6,6,2 3 3 4 2 2,6,0.0,0.0,0.0,0.0,0.0,0.0,0,0.0,0.0,0.0,0.0,0.0
139,3,1.2561229000566527,3,True,0.5,acc,right,False,2,1,6,ret,1,10,1,"['2', '3', '3', '4', '2', '2']","[14.847383499960415, 15.079595500021242, 15.287375399959274, 15.655491500045173, 15.903495199978352, 16.103506400017068]",6,6,# # # # # #,None,14.847383499960415,15.079595500021242,15.287375399959274,15.655491500045173,15.903495199978352,16.103506400017068,0.06785619992297143,0.23221200006082654,0.20777989993803203,0.36811610008589923,0.24800369993317872,0.2000112000387162
140,4,0.0,2,False,0.0,None,right,False,2,1,0,enc,0,0,0,[],[],6,6,3 1 2 4 4 4,4,0.0,0.0,0.0,0.0,0.0,0.0,0,0.0,0.0,0.0,0.0,0.0
141,5,3.968107199994847,2,True,0.5,acc,right,False,2,1,6,ret,1,10,0,"['4', '4', '4', '2', '1', '3']","[25.03131640003994, 25.34344379999675, 27.311468800064176, 27.607440100051463, 28.751436799997464, 28.99942360003479]",6,6,# # # # # #,None,25.03131640003994,25.34344379999675,27.311468800064176,27.607440100051463,28.751436799997464,28.99942360003479,2.4278100000228733,0.3121273999568075,1.9680250000674278,0.29597129998728633,1.1439966999460012,0.24798680003732443
142,6,0.0,3,False,0.0,None,right,False,2,1,0,enc,0,0,1,[],[],6,6,3 3 1 3 2 2,6,0.0,0.0,0.0,0.0,0.0,0.0,0,0.0,0.0,0.0,0.0,0.0
143,7,2.392074199975468,3,True,0.5,acc,right,False,2,1,6,ret,1,10,1,"['3', '3', '1', '3', '2', '2']","[35.83145599998534, 36.90342570003122, 37.12749330000952, 37.75143629999366, 37.98342720000073, 38.223530199960805]",6,6,# # # # # #,None,35.83145599998534,36.90342570003122,37.12749330000952,37.75143629999366,37.98342720000073,38.223530199960805,0.332032399950549,1.0719697000458837,0.22406759997829795,0.6239429999841377,0.23199090000707656,0.24010299996007234
144,8,0.0,2,False,0.0,None,right,False,2,1,0,enc,0,0,1,[],[],6,6,1 2 2 2 4 1,4,0.0,0.0,0.0,0.0,0.0,0.0,0,0.0,0.0,0.0,0.0,0.0
145,9,1.5600339999655262,2,True,0.5,acc,right,False,2,1,6,ret,1,10,1,"['1', '2', '2', '2', '4', '1']","[46.911408100044355, 47.11938250006642, 47.50337140006013, 47.73544209997635, 48.15942250005901, 48.47144210000988]",6,6,# # # # # #,None,46.911408100044355,47.11938250006642,47.50337140006013,47.73544209997635,48.15942250005901,48.47144210000988,2.1878779000835493,0.20797440002206713,0.3839888999937102,0.2320706999162212,0.42398040008265525,0.31201959995087236
146,10,0.0,3,False,0.0,None,right,False,2,1,0,enc,0,0,1,[],[],6,6,3 1 4 4 2 4,6,0.0,0.0,0.0,0.0,0.0,0.0,0,0.0,0.0,0.0,0.0,0.0
147,11,1.7598782998975366,3,True,0.5,acc,right,False,2,1,6,ret,1,10,1,"['3', '1', '4', '4', '2', '4']","[55.33553350006696, 55.696182399988174, 55.999520399956964, 56.519454700057395, 56.82332119997591, 57.095411799964495]",6,6,# # # # # #,None,55.33553350006696,55.696182399988174,55.999520399956964,56.519454700057395,56.82332119997591,57.095411799964495,0.3640914000570774,0.36064889992121607,0.3033379999687895,0.5199343001004308,0.303866499918513,0.2720905999885872
148,12,0.0,3,False,0.0,None,right,False,2,1,0,enc,0,0,0,[],[],6,6,3 4 1 3 4 2,6,0.0,0.0,0.0,0.0,0.0,0.0,0,0.0,0.0,0.0,0.0,0.0
149,13,3.743817999958992,3,True,0.5,acc,right,False,2,1,6,ret,1,10,0,"['2', '4', '3', '1', '4', '3']","[64.12752680003177, 64.55143009999301, 64.83951169997454, 66.8953548000427, 67.5193834999809, 67.87134479999077]",6,6,# # # # # #,None,64.12752680003177,64.55143009999301,64.83951169997454,66.8953548000427,67.5193834999809,67.87134479999077,0.5321150000672787,0.4239032999612391,0.28808159998152405,2.0558431000681594,0.6240286999382079,0.3519613000098616
150,14,0.0,3,False,0.0,None,right,False,2,1,0,enc,0,0,0,[],[],6,6,1 2 1 3 1 1,6,0.0,0.0,0.0,0.0,0.0,0.0,0,0.0,0.0,0.0,0.0,0.0
151,15,2.2878457999322563,3,True,0.5,acc,right,False,2,1,6,ret,1,10,0,"['1', '1', '3', '1', '2', '1']","[74.72740930004511, 74.9594483000692, 75.49539599998388, 76.60741599998437, 76.8475339000579, 77.01525509997737]",6,6,# # # # # #,None,74.72740930004511,74.9594483000692,75.49539599998388,76.60741599998437,76.8475339000579,77.01525509997737,0.35606450005434453,0.23203900002408773,0.5359476999146864,1.1120200000004843,0.2401179000735283,0.16772119991946965
152,16,0.0,2,False,0.0,None,right,False,2,1,0,enc,0,0,1,[],[],6,6,2 1 4 3 3 2,4,0.0,0.0,0.0,0.0,0.0,0.0,0,0.0,0.0,0.0,0.0,0.0
153,17,5.776005399995484,2,True,0.5,acc,right,True,2,1,5,ret,1,5,1,"['2', '1', '4', '1', '3', '2']","[86.11942830006592, 86.37542529997882, 89.09541279997211, 90.6793711000355, 91.75945640006103, 91.8954337000614]",6,6,# # # # # #,None,86.11942830006592,86.37542529997882,89.09541279997211,90.6793711000355,91.75945640006103,91.8954337000614,2.604173200088553,0.25599699991289526,2.7199874999932945,1.5839583000633866,1.0800853000255302,0.135977300000377
154,18,0.0,2,False,0.0,None,right,False,2,1,0,enc,0,0,0,[],[],6,6,1 4 4 1 2 3,4,0.0,0.0,0.0,0.0,0.0,0.0,0,0.0,0.0,0.0,0.0,0.0
155,19,4.031880999915302,2,True,0.5,acc,right,False,2,1,6,ret,1,10,0,"['3', '2', '1', '4', '4', '1']","[101.03147270006593, 101.29542710003443, 103.47943549999036, 103.99145229998976, 104.80733049998526, 105.06335369998123]",6,6,# # # # # #,None,101.03147270006593,101.29542710003443,103.47943549999036,103.99145229998976,104.80733049998526,105.06335369998123,2.63603900000453,0.26395439996849746,2.1840083999559283,0.512016799999401,0.8158781999954954,0.25602319999597967
156,20,0.0,2,False,0.0,None,right,False,2,1,0,enc,0,0,0,[],[],6,6,2 1 2 3 4 4,4,0.0,0.0,0.0,0.0,0.0,0.0,0,0.0,0.0,0.0,0.0,0.0
157,21,3.255969400051981,2,True,0.5,acc,right,False,2,1,6,ret,1,10,0,"['4', '4', '3', '2', '1', '2']","[114.26331539999228, 114.47126480005682, 116.4072526000673, 116.7194037999725, 117.26335899997503, 117.51928480004426]",6,6,# # # # # #,None,114.26331539999228,114.47126480005682,116.4072526000673,116.7194037999725,117.26335899997503,117.51928480004426,2.6999617000110447,0.20794940006453544,1.93598780001048,0.3121511999052018,0.5439552000025287,0.25592580006923527
158,22,0.0,3,False,0.0,None,right,False,2,1,0,enc,0,0,0,[],[],6,6,3 1 3 4 2 3,6,0.0,0.0,0.0,0.0,0.0,0.0,0,0.0,0.0,0.0,0.0,0.0
159,23,2.695949399960228,3,True,0.5,acc,right,False,2,1,6,ret,1,10,0,"['3', '2', '4', '3', '1', '3']","[126.67934490006883, 126.92036730004475, 127.19937290006783, 128.81535180006176, 129.127351299976, 129.37529430002905]",6,6,# # # # # #,None,126.67934490006883,126.92036730004475,127.19937290006783,128.81535180006176,129.127351299976,129.37529430002905,2.660060100024566,0.24102239997591823,0.2790056000230834,1.6159788999939337,0.31199949991423637,0.24794300005305558
160,0,0.0,2,False,0.0,None,right,False,2,1,0,enc,0,0,1,[],[],7,6,2 4 4 2 1 3,4,0.0,0.0,0.0,0.0,0.0,0.0,0,0.0,0.0,0.0,0.0,0.0
161,1,3.2958899000659585,2,True,0.5,acc,right,True,2,1,5,ret,1,5,1,"['2', '4', '4', '1', '1', '3']","[6.99786420003511, 7.429906800040044, 8.285827800049447, 8.629844100098126, 9.997905600001104, 10.293754100101069]",7,6,# # # # # #,None,6.99786420003511,7.429906800040044,8.285827800049447,8.629844100098126,9.997905600001104,10.293754100101069,NaN,0.4320426000049338,0.8559210000094026,0.3440163000486791,1.3680614999029785,0.29584850009996444
162,2,0.0,3,False,0.0,None,right,False,2,1,0,enc,0,0,1,[],[],7,6,2 4 3 1 4 4,6,0.0,0.0,0.0,0.0,0.0,0.0,0,0.0,0.0,0.0,0.0,0.0
163,3,2.015993100008928,3,True,0.5,acc,right,False,2,1,6,ret,1,10,1,"['2', '4', '3', '1', '4', '4']","[16.917923200060613, 17.18991499999538, 17.41397069999948, 17.725821800064296, 18.7418214000063, 18.93391630006954]",7,6,# # # # # #,None,16.917923200060613,17.18991499999538,17.41397069999948,17.725821800064296,18.7418214000063,18.93391630006954,0.12416909995954484,0.2719917999347672,0.2240557000041008,0.3118511000648141,1.0159995999420062,0.19209490006323904
164,4,0.0,3,False,0.0,None,right,False,2,1,0,enc,0,0,1,[],[],7,6,3 3 4 4 4 1,6,0.0,0.0,0.0,0.0,0.0,0.0,0,0.0,0.0,0.0,0.0,0.0
165,5,1.0159416999667883,3,True,0.5,acc,right,False,2,1,6,ret,1,10,1,"['3', '3', '4', '4', '4', '1']","[25.597897700034082, 25.741866199998185, 25.94981270004064, 26.253853000001982, 26.42190740001388, 26.61383940000087]",7,6,# # # # # #,None,25.597897700034082,25.741866199998185,25.94981270004064,26.253853000001982,26.42190740001388,26.61383940000087,0.1639813999645412,0.1439684999641031,0.2079465000424534,0.3040402999613434,0.1680544000118971,0.1919319999869913
166,6,0.0,2,False,0.0,None,right,False,2,1,0,enc,0,0,1,[],[],7,6,4 1 2 3 3 2,4,0.0,0.0,0.0,0.0,0.0,0.0,0,0.0,0.0,0.0,0.0,0.0
167,7,1.823461799998768,2,True,0.5,acc,right,False,2,1,6,ret,1,10,1,"['4', '1', '2', '3', '3', '2']","[35.286416799994186, 35.54168760008179, 36.36584760004189, 36.63784080010373, 36.99089100002311, 37.10987859999295]",7,6,# # # # # #,None,35.286416799994186,35.54168760008179,36.36584760004189,36.63784080010373,36.99089100002311,37.10987859999295,2.1725773999933153,0.25527080008760095,0.8241599999601021,0.2719932000618428,0.35305019991938025,0.11898759996984154
168,8,0.0,3,False,0.0,None,right,False,2,1,0,enc,0,0,0,[],[],7,6,3 4 2 1 2 2,6,0.0,0.0,0.0,0.0,0.0,0.0,0,0.0,0.0,0.0,0.0,0.0
169,9,3.2078682999126613,3,True,0.5,acc,right,False,2,1,6,ret,1,10,0,"['2', '2', '1', '2', '4', '3']","[44.901875400100835, 45.109949900070205, 45.34991230000742, 47.54985460010357, 47.8539208000293, 48.109743700013496]",7,6,# # # # # #,None,44.901875400100835,45.109949900070205,45.34991230000742,47.54985460010357,47.8539208000293,48.109743700013496,1.2919968001078814,0.20807449996937066,0.23996239993721247,2.199942300096154,0.30406619992572814,0.25582289998419583
170,10,0.0,2,False,0.0,None,right,False,2,1,0,enc,0,0,0,[],[],7,6,4 4 3 4 3 3,4,0.0,0.0,0.0,0.0,0.0,0.0,0,0.0,0.0,0.0,0.0,0.0
171,11,9.631915099918842,2,True,0.5,acc,right,True,2,1,4,ret,1,4,0,"['3', '3', '2', '3', '3', '4']","[57.38981190009508, 57.58206480008084, 59.56610080006067, 60.214098400087096, 66.5019242000999, 67.02172700001393]",7,6,# # # # # #,None,57.38981190009508,57.58206480008084,59.56610080006067,60.214098400087096,66.5019242000999,67.02172700001393,2.780068200081587,0.19225289998576045,1.9840359999798238,0.6479976000264287,6.287825800012797,0.5198027999140322
172,12,0.0,2,False,0.0,None,right,False,2,1,0,enc,0,0,0,[],[],7,6,4 1 4 1 4 2,4,0.0,0.0,0.0,0.0,0.0,0.0,0,0.0,0.0,0.0,0.0,0.0
173,13,2.344090599915944,2,True,0.5,acc,right,False,2,1,6,ret,1,10,0,"['2', '4', '1', '4', '1', '4']","[75.8696757000871, 76.13377150008455, 77.42181040009018, 77.74179910006933, 77.9898158001015, 78.21376630000304]",7,6,# # # # # #,None,75.8696757000871,76.13377150008455,77.42181040009018,77.74179910006933,77.9898158001015,78.21376630000304,2.347948700073175,0.2640957999974489,1.2880389000056311,0.3199886999791488,0.24801670003216714,0.22395049990154803
174,14,0.0,3,False,0.0,None,right,False,2,1,0,enc,0,0,1,[],[],7,6,2 1 4 3 1 2,6,0.0,0.0,0.0,0.0,0.0,0.0,0,0.0,0.0,0.0,0.0,0.0
175,15,1.5759700000053272,3,True,0.5,acc,right,False,2,1,6,ret,1,10,1,"['2', '1', '4', '3', '1', '2']","[85.02180700004101, 85.22182130010333, 85.5669087000424, 86.13380780001171, 86.3737783000106, 86.59777700004634]",7,6,# # # # # #,None,85.02180700004101,85.22182130010333,85.5669087000424,86.13380780001171,86.3737783000106,86.59777700004634,0.3080407000379637,0.20001430006232113,0.3450873999390751,0.5668990999693051,0.23997049999888986,0.22399870003573596
176,16,0.0,2,False,0.0,None,right,False,2,1,0,enc,0,0,0,[],[],7,6,4 4 4 2 4 2,4,0.0,0.0,0.0,0.0,0.0,0.0,0,0.0,0.0,0.0,0.0,0.0
177,17,1.887885699979961,2,True,0.5,acc,right,False,2,1,6,ret,1,10,0,"['2', '4', '2', '4', '4', '4']","[96.52590650005732, 96.84570980002172, 97.12592230003793, 97.421794300084, 98.18178210000042, 98.41379220003728]",7,6,# # # # # #,None,96.52590650005732,96.84570980002172,97.12592230003793,97.421794300084,98.18178210000042,98.41379220003728,3.428129500010982,0.3198032999644056,0.280212500016205,0.2958720000460744,0.7599877999164164,0.2320101000368595
178,18,0.0,3,False,0.0,None,right,False,2,1,0,enc,0,0,0,[],[],7,6,3 1 4 4 2 4,6,0.0,0.0,0.0,0.0,0.0,0.0,0,0.0,0.0,0.0,0.0,0.0
179,19,3.055910199997016,3,True,0.5,acc,right,False,2,1,6,ret,1,10,0,"['4', '2', '4', '4', '1', '3']","[105.3979229000397, 105.59780800004955, 105.84572560002562, 107.80578110006172, 108.17379500006791, 108.45383310003672]",7,6,# # # # # #,None,105.3979229000397,105.59780800004955,105.84572560002562,107.80578110006172,108.17379500006791,108.45383310003672,0.4841307000024244,0.19988510000985116,0.24791759997606277,1.9600555000361055,0.36801390000618994,0.2800380999688059
180,20,0.0,3,False,0.0,None,right,False,2,1,0,enc,0,0,0,[],[],7,6,1 4 2 2 3 4,6,0.0,0.0,0.0,0.0,0.0,0.0,0,0.0,0.0,0.0,0.0,0.0
181,21,4.224099199986084,3,True,0.5,acc,right,True,2,1,4,ret,1,4,0,"['4', '3', '2', '4', '2', '1']","[116.64577940001618, 116.78975790005643, 117.09388460009359, 120.35783240001183, 120.62977470003534, 120.86987860000227]",7,6,# # # # # #,None,116.64577940001618,116.78975790005643,117.09388460009359,120.35783240001183,120.62977470003534,120.86987860000227,1.6919462999794632,0.14397850004024804,0.304126700037159,3.263947799918242,0.27194230002351105,0.24010389996692538
182,22,0.0,2,False,0.0,None,right,False,2,1,0,enc,0,0,1,[],[],7,6,1 1 2 1 1 3,4,0.0,0.0,0.0,0.0,0.0,0.0,0,0.0,0.0,0.0,0.0,0.0
183,23,1.1679936000145972,2,True,0.5,acc,right,False,2,1,6,ret,1,10,1,"['1', '1', '2', '1', '1', '3']","[129.37376930005848, 129.54185180005152, 129.87778370000888, 130.06181250000373, 130.31774140009657, 130.54176290007308]",7,6,# # # # # #,None,129.37376930005848,129.54185180005152,129.87778370000888,130.06181250000373,130.31774140009657,130.54176290007308,2.0038907000562176,0.1680824999930337,0.33593189995735884,0.18402879999484867,0.2559289000928402,0.22402149997651577
184,0,0.0,2,False,0.0,None,right,False,2,1,0,enc,0,0,1,[],[],8,6,4 2 3 2 2 2,4,0.0,0.0,0.0,0.0,0.0,0.0,0,0.0,0.0,0.0,0.0,0.0
185,1,1.3441227999283,2,True,0.5,acc,right,False,2,1,6,ret,1,10,1,"['4', '2', '3', '2', '2', '2']","[7.707082099979743, 8.035121699911542, 8.323161499924026, 8.57141909992788, 8.850898199947551, 9.051204899908043]",8,6,# # # # # #,None,7.707082099979743,8.035121699911542,8.323161499924026,8.57141909992788,8.850898199947551,9.051204899908043,NaN,0.3280395999317989,0.2880398000124842,0.24825760000385344,0.279479100019671,0.20030669996049255
186,2,0.0,2,False,0.0,None,right,False,2,1,0,enc,0,0,1,[],[],8,6,1 1 1 3 1 4,4,0.0,0.0,0.0,0.0,0.0,0.0,0,0.0,0.0,0.0,0.0,0.0
187,3,1.4718030999647451,2,True,0.5,acc,right,False,2,1,6,ret,1,10,1,"['1', '1', '1', '3', '1', '4']","[17.914987699943595, 18.09082889999263, 18.52283189992886, 18.77095769997686, 19.098965000011958, 19.38679079990834]",8,6,# # # # # #,None,17.914987699943595,18.09082889999263,18.52283189992886,18.77095769997686,19.098965000011958,19.38679079990834,2.363782800035551,0.17584120004903525,0.4320029999362305,0.2481258000480011,0.3280073000350967,0.2878257998963818
188,4,0.0,2,False,0.0,None,right,False,2,1,0,enc,0,0,0,[],[],8,6,2 1 2 1 3 4,4,0.0,0.0,0.0,0.0,0.0,0.0,0,0.0,0.0,0.0,0.0,0.0
189,5,1.1681137999985367,2,True,0.5,acc,right,False,2,1,6,ret,1,10,0,"['4', '3', '1', '2', '1', '2']","[28.194883199990727, 28.31493499991484, 28.826920999912545, 28.947475099936128, 29.211079399916343, 29.362996999989264]",8,6,# # # # # #,None,28.194883199990727,28.31493499991484,28.826920999912545,28.947475099936128,29.211079399916343,29.362996999989264,2.308092400082387,0.12005179992411286,0.5119859999977052,0.12055410002358258,0.26360429998021573,0.15191760007292032
190,6,0.0,2,False,0.0,None,right,False,2,1,0,enc,0,0,1,[],[],8,6,1 3 1 4 2 3,4,0.0,0.0,0.0,0.0,0.0,0.0,0,0.0,0.0,0.0,0.0,0.0
191,7,1.4240127999801189,2,True,0.5,acc,right,False,2,1,6,ret,1,10,1,"['1', '3', '1', '4', '2', '3']","[38.08284729998559, 38.218937299912795, 38.66675059997942, 38.858915799995884, 39.39489799994044, 39.50686009996571]",8,6,# # # # # #,None,38.08284729998559,38.218937299912795,38.66675059997942,38.858915799995884,39.39489799994044,39.50686009996571,2.219850299996324,0.13608999992720783,0.44781330006662756,0.1921652000164613,0.5359821999445558,0.11196210002526641
192,8,0.0,3,False,0.0,None,right,False,2,1,0,enc,0,0,1,[],[],8,6,1 4 3 3 2 2,6,0.0,0.0,0.0,0.0,0.0,0.0,0,0.0,0.0,0.0,0.0,0.0
193,9,1.5759021999547258,3,True,0.5,acc,right,True,2,1,5,ret,1,5,1,"['1', '4', '3', '3', '3', '2']","[46.17896639998071, 46.49074759997893, 46.71488420001697, 47.154789199936204, 47.474933499936014, 47.754868599935435]",8,6,# # # # # #,None,46.17896639998071,46.49074759997893,46.71488420001697,47.154789199936204,47.474933499936014,47.754868599935435,0.1721063000150025,0.3117811999982223,0.2241366000380367,0.4399049999192357,0.32014429999981076,0.27993509999942034
194,10,0.0,2,False,0.0,None,right,False,2,1,0,enc,0,0,0,[],[],8,6,4 3 3 4 4 1,4,0.0,0.0,0.0,0.0,0.0,0.0,0,0.0,0.0,0.0,0.0,0.0
195,11,4.135976399993524,2,True,0.5,acc,right,False,2,1,6,ret,1,10,0,"['1', '4', '4', '3', '3', '4']","[56.842902799951844, 57.14687870000489, 59.88286569993943, 60.050851100008, 60.70698289992288, 60.97887919994537]",8,6,# # # # # #,None,56.842902799951844,57.14687870000489,59.88286569993943,60.050851100008,60.70698289992288,60.97887919994537,2.588034200016409,0.30397590005304664,2.735986999934539,0.16798540006857365,0.6561317999148741,0.2718963000224903
196,12,0.0,2,False,0.0,None,right,False,2,1,0,enc,0,0,0,[],[],8,6,3 1 3 2 4 2,4,0.0,0.0,0.0,0.0,0.0,0.0,0,0.0,0.0,0.0,0.0,0.0
197,13,4.808114400017075,2,True,0.5,acc,right,False,2,1,6,ret,1,10,0,"['2', '4', '2', '3', '1', '3']","[69.86673799995333, 70.12292839994188, 72.38682539993897, 72.5788506999379, 74.44378169998527, 74.6748523999704]",8,6,# # # # # #,None,69.86673799995333,70.12292839994188,72.38682539993897,72.5788506999379,74.44378169998527,74.6748523999704,2.3878588000079617,0.2561903999885544,2.263896999997087,0.1920252999989316,1.8649310000473633,0.23107069998513907
198,14,0.0,3,False,0.0,None,right,False,2,1,0,enc,0,0,1,[],[],8,6,1 3 2 3 3 3,6,0.0,0.0,0.0,0.0,0.0,0.0,0,0.0,0.0,0.0,0.0,0.0
199,15,1.071998400031589,3,True,0.5,acc,right,False,2,1,6,ret,1,10,1,"['1', '3', '2', '3', '3', '3']","[81.33087409997825, 81.57896830001846, 81.7868315000087, 82.09084690001328, 82.25883459998295, 82.40287250000983]",8,6,# # # # # #,None,81.33087409997825,81.57896830001846,81.7868315000087,82.09084690001328,82.25883459998295,82.40287250000983,0.156021700007841,0.24809420004021376,0.20786319999024272,0.30401540000457317,0.16798769996967167,0.14403790002688766
200,16,0.0,3,False,0.0,None,right,False,2,1,0,enc,0,0,1,[],[],8,6,4 2 4 4 2 4,6,0.0,0.0,0.0,0.0,0.0,0.0,0,0.0,0.0,0.0,0.0,0.0
201,17,1.3039715000195429,3,True,0.5,acc,right,False,2,1,6,ret,1,10,1,"['4', '2', '4', '4', '2', '4']","[88.70684789994266, 88.90683479991276, 89.13088359998073, 89.44280740001705, 89.78715489991009, 90.0108193999622]",8,6,# # # # # #,None,88.70684789994266,88.90683479991276,89.13088359998073,89.44280740001705,89.78715489991009,90.0108193999622,-0.19602460006717592,0.19998689997009933,0.22404880006797612,0.31192380003631115,0.3443474998930469,0.22366450005210936
202,18,0.0,3,False,0.0,None,right,False,2,1,0,enc,0,0,0,[],[],8,6,1 2 2 3 1 1,6,0.0,0.0,0.0,0.0,0.0,0.0,0,0.0,0.0,0.0,0.0,0.0
203,19,5.311913899960928,3,True,0.5,acc,right,True,2,1,5,ret,1,5,0,"['1', '1', '3', '2', '1', '1']","[98.09090609999839, 98.51490850001574, 99.2428505999269, 102.64315489993896, 103.10681069991551, 103.40281999995932]",8,6,# # # # # #,None,98.09090609999839,98.51490850001574,99.2428505999269,102.64315489993896,103.10681069991551,103.40281999995932,1.5800867000361905,0.42400240001734346,0.7279420999111608,3.400304300012067,0.46365579997655004,0.29600930004380643
204,20,0.0,3,False,0.0,None,right,False,2,1,0,enc,0,0,0,[],[],8,6,2 3 1 1 3 4,6,0.0,0.0,0.0,0.0,0.0,0.0,0,0.0,0.0,0.0,0.0,0.0
205,21,2.639988499926403,3,True,0.5,acc,right,False,2,1,6,ret,1,10,0,"['4', '3', '1', '1', '3', '2']","[111.12284209998325, 111.33888449997175, 111.64289419993293, 113.26681709999684, 113.53890929999761, 113.76283059990965]",8,6,# # # # # #,None,111.12284209998325,111.33888449997175,111.64289419993293,113.26681709999684,113.53890929999761,113.76283059990965,1.2200221000239253,0.21604239998850971,0.30400969996117055,1.623922900063917,0.2720922000007704,0.22392129991203547
206,22,0.0,3,False,0.0,None,right,False,2,1,0,enc,0,0,0,[],[],8,6,4 3 2 2 1 3,6,0.0,0.0,0.0,0.0,0.0,0.0,0,0.0,0.0,0.0,0.0,0.0
207,23,6.679984000045806,3,True,0.5,acc,right,True,2,1,5,ret,1,5,0,"['3', '1', '2', '1', '3', '4']","[121.2668088999344, 121.89078759995755, 122.32283670001198, 127.50685869995505, 127.6828291999409, 127.94679289998021]",8,6,# # # # # #,None,121.2668088999344,121.89078759995755,122.32283670001198,127.50685869995505,127.6828291999409,127.94679289998021,1.0039783000247553,0.6239787000231445,0.432049100054428,5.18402199994307,0.17597049998585135,0.26396370003931224
