,MT,Unnamed: 0,Unnamed: 0.1,Unnamed: 0.1.1,Unnamed: 0.1.1.1,Unnamed: 0.1.1.1.1,Unnamed: 0.1.1.1.1.1,Unnamed: 0.1.1.1.1.1.1,Unnamed: 0.1.1.1.1.1.1.1,Unnamed: 0.1.1.1.1.1.1.1.1,chunk,display_trial_feedback,feedback_dur,feedback_type,hand,is_error,item_dur,iti_dur,number_correct,phase,phase_type,points,recall_dir,response,response_time,run_number,seq_length,seq_str,trial_dur
0,0.0,0,0.0,0.0,0.0,0.0,0.0,0.0,0.0,0.0,3,False,0.0,None,right,False,2,1,0,enc,0,0,1,[],[],1,6,2 2 2 4 4 3,6
1,2.1680021000793204,1,1.0,1.0,1.0,1.0,1.0,1.0,1.0,1.0,3,True,0.5,acc,right,False,2,1,6,ret,1,10,1,"['2', '2', '2', '4', '4', '3']","[27.95520009996835, 28.22720990004018, 29.347199200070463, 29.79514940001536, 29.963158800033852, 30.123202200047672]",1,6,# # # # # #,None
2,0.0,2,2.0,2.0,2.0,2.0,2.0,2.0,2.0,2.0,3,False,0.0,None,right,False,2,1,0,enc,0,0,1,[],[],1,6,1 3 1 3 1 2,6
3,1.1520142999943346,3,3.0,3.0,3.0,3.0,3.0,3.0,3.0,3.0,3,True,0.5,acc,right,False,2,1,6,ret,1,10,1,"['1', '3', '1', '3', '1', '2']","[36.939194999984466, 37.19513440004084, 37.41930880001746, 37.69925509998575, 37.98713130003307, 38.0912092999788]",1,6,# # # # # #,None
4,0.0,4,4.0,4.0,4.0,4.0,4.0,4.0,4.0,4.0,3,False,0.0,None,right,False,2,1,0,enc,0,0,0,[],[],1,6,4 1 4 3 4 3,6
5,1.3279166999273002,5,5.0,5.0,5.0,5.0,5.0,5.0,5.0,5.0,3,True,0.5,acc,right,False,2,1,6,ret,1,10,0,"['3', '4', '3', '4', '1', '4']","[45.16318540007342, 45.34718649997376, 45.54720480006654, 46.05918360000942, 46.291208400041796, 46.49110210000072]",1,6,# # # # # #,None
6,0.0,6,6.0,6.0,6.0,6.0,6.0,6.0,6.0,6.0,2,False,0.0,None,right,False,2,1,0,enc,0,0,1,[],[],1,6,4 3 4 1 4 4,4
7,1.2404172000242395,7,7.0,7.0,7.0,7.0,7.0,7.0,7.0,7.0,2,True,0.5,acc,right,False,2,1,6,ret,1,10,1,"['4', '3', '4', '1', '4', '4']","[55.379207400023006, 55.48315800004639, 55.98717740003485, 56.13971660006791, 56.459130199975334, 56.619624600047246]",1,6,# # # # # #,None
8,0.0,8,8.0,8.0,8.0,8.0,8.0,8.0,8.0,8.0,2,False,0.0,None,right,False,2,1,0,enc,0,0,0,[],[],1,6,4 1 3 3 1 4,4
9,8.511983399977908,9,9.0,9.0,9.0,9.0,9.0,9.0,9.0,9.0,2,True,0.5,acc,right,True,2,1,2,ret,1,2,0,"['4', '1', '1', '4', '3', '3']","[67.9391688000178, 68.10756140004378, 75.56320930004586, 75.70707910007332, 76.31522650003899, 76.4511521999957]",1,6,# # # # # #,None
10,0.0,10,10.0,10.0,10.0,10.0,10.0,10.0,10.0,10.0,2,False,0.0,None,right,False,2,1,0,enc,0,0,0,[],[],1,6,1 3 4 2 2 2,4
11,5.087923499988391,11,11.0,11.0,11.0,11.0,11.0,11.0,11.0,11.0,2,True,0.5,acc,right,True,2,1,4,ret,1,4,0,"['2', '2', '3', '4', '1', '1']","[85.5551698000636, 85.72315880004317, 89.56311980006285, 89.77911570004653, 90.44313629996032, 90.64309330005199]",1,6,# # # # # #,None
12,0.0,12,12.0,12.0,12.0,12.0,12.0,12.0,12.0,12.0,3,False,0.0,None,right,False,2,1,0,enc,0,0,0,[],[],1,6,4 1 1 1 4 3,6
13,3.431840200093576,13,13.0,13.0,13.0,13.0,13.0,13.0,13.0,13.0,3,True,0.5,acc,right,True,2,1,4,ret,1,4,0,"['3', '4', '1', '3', '1', '1']","[97.69140869996045, 97.9470576000167, 98.19504210003652, 100.5872507999884, 100.89908720005769, 101.12324890005402]",1,6,# # # # # #,None
14,0.0,14,14.0,14.0,14.0,14.0,14.0,14.0,14.0,14.0,2,False,0.0,None,right,False,2,1,0,enc,0,0,1,[],[],1,6,1 2 3 4 3 1,4
15,1.2638526000082493,15,15.0,15.0,15.0,15.0,15.0,15.0,15.0,15.0,2,True,0.5,acc,right,False,2,1,6,ret,1,10,1,"['1', '2', '3', '4', '3', '1']","[110.31517349998467, 110.44365919998381, 110.85913680004887, 110.97907750005834, 111.38710930000525, 111.57902609999292]",1,6,# # # # # #,None
16,0.0,16,16.0,16.0,16.0,16.0,16.0,0.0,0.0,,3,False,0.0,None,right,False,2,1,0,enc,0,0,1,[],[],1,6,4 2 2 1 1 2,6
17,1.0480483999708667,17,17.0,17.0,17.0,17.0,17.0,1.0,1.0,,3,True,0.5,acc,right,False,2,1,6,ret,1,10,1,"['4', '2', '2', '1', '1', '2']","[5.571914199972525, 5.827885699924082, 5.9799282000167295, 6.316213699989021, 6.459904299932532, 6.619962599943392]",1,6,# # # # # #,None
18,0.0,18,18.0,18.0,18.0,18.0,18.0,2.0,2.0,,3,False,0.0,None,right,False,2,1,0,enc,0,0,1,[],[],1,6,3 3 2 2 3 3,6
19,0.9843311000149696,19,19.0,19.0,19.0,19.0,19.0,3.0,3.0,,3,True,0.5,acc,right,True,2,1,5,ret,1,5,1,"['3', '3', '2', '2', '2', '3']","[13.33987329993397, 13.483915399992839, 13.723934900015593, 14.051986899925396, 14.188004299998283, 14.32420439994894]",1,6,# # # # # #,None
20,0.0,20,20.0,20.0,20.0,20.0,20.0,4.0,4.0,,2,False,0.0,None,right,False,2,1,0,enc,0,0,0,[],[],1,6,1 4 4 2 2 1,4
21,6.10395429993514,21,21.0,21.0,21.0,21.0,21.0,5.0,5.0,,2,True,0.5,acc,right,True,2,1,3,ret,1,3,0,"['1', '2', '4', '1', '2', '1']","[23.515989699983038, 23.707911300007254, 24.676131399930455, 24.963919700006954, 29.548923399997875, 29.619943999918178]",1,6,# # # # # #,None
22,0.0,22,22.0,22.0,22.0,22.0,22.0,6.0,6.0,,3,False,0.0,None,right,False,2,1,0,enc,0,0,0,[],[],1,6,2 3 3 2 4 1,6
23,4.088475299999119,23,23.0,23.0,23.0,23.0,23.0,7.0,7.0,,3,True,0.5,acc,right,False,2,1,6,ret,1,10,0,"['1', '4', '2', '3', '3', '2']","[39.587992499931715, 40.37189969990868, 40.691915299976245, 42.98784209997393, 43.33186759997625, 43.67646779993083]",1,6,# # # # # #,None
24,0.0,24,24.0,24.0,24.0,24.0,24.0,8.0,8.0,,2,False,0.0,None,right,False,2,1,0,enc,0,0,0,[],[],1,6,4 3 2 1 3 4,4
25,5.367953900014982,25,25.0,25.0,25.0,25.0,25.0,9.0,9.0,,2,True,0.5,acc,right,False,2,1,6,ret,1,10,0,"['4', '3', '1', '2', '3', '4']","[52.89996539999265, 53.13987159996759, 55.771911099902354, 56.148883200017735, 57.97189059993252, 58.267919300007634]",1,6,# # # # # #,None
26,0.0,26,26.0,26.0,26.0,26.0,26.0,10.0,10.0,,2,False,0.0,None,right,False,2,1,0,enc,0,0,1,[],[],1,6,4 3 3 1 1 2,4
27,1.6160111000062898,27,27.0,27.0,27.0,27.0,27.0,11.0,11.0,,2,True,0.5,acc,right,True,2,1,5,ret,1,5,1,"['4', '3', '3', '1', '3', '2']","[67.1638598999707, 67.32392419991083, 67.723879499943, 68.01189149997663, 68.53993349999655, 68.77987099997699]",1,6,# # # # # #,None
28,0.0,28,28.0,28.0,28.0,28.0,28.0,12.0,12.0,,3,False,0.0,None,right,False,2,1,0,enc,0,0,0,[],[],1,6,2 3 4 2 2 1,6
29,2.519920499995352,29,29.0,29.0,29.0,29.0,29.0,13.0,13.0,,3,True,0.5,acc,right,False,2,1,6,ret,1,10,0,"['1', '2', '2', '4', '3', '2']","[75.85190419992432, 76.12383900000714, 76.43587019992992, 77.84388749999925, 78.09182420000434, 78.37182469991967]",1,6,# # # # # #,None
30,0.0,30,30.0,30.0,30.0,30.0,30.0,14.0,14.0,,2,False,0.0,None,right,False,2,1,0,enc,0,0,1,[],[],1,6,4 2 3 4 2 1,4
31,4.767930299974979,31,31.0,31.0,31.0,31.0,31.0,15.0,15.0,,2,True,0.5,acc,right,True,2,1,2,ret,1,2,1,"['4', '3', '2', '1', '4', '1']","[88.29190079995897, 88.53189390001353, 89.81186679995153, 90.33190669992473, 92.72382630000357, 93.05983109993394]",1,6,# # # # # #,None
32,0.0,32,32.0,32.0,32.0,32.0,32.0,16.0,16.0,,2,False,0.0,None,right,False,2,1,0,enc,0,0,1,[],[],1,6,1 4 1 3 2 4,4
33,3.2561389999464154,33,33.0,33.0,33.0,33.0,33.0,17.0,17.0,,2,True,0.5,acc,right,True,2,1,3,ret,1,3,1,"['1', '4', '2', '3', '4', '1']","[101.83575059997384, 102.19584810000379, 103.00383659999352, 103.26783109991811, 104.79609099996742, 105.09188959992025]",1,6,# # # # # #,None
34,0.0,34,34.0,34.0,34.0,34.0,34.0,18.0,18.0,,3,False,0.0,None,right,False,2,1,0,enc,0,0,0,[],[],1,6,2 3 3 3 3 4,6
35,2.471948300022632,35,35.0,35.0,35.0,35.0,35.0,19.0,19.0,,3,True,0.5,acc,right,False,2,1,6,ret,1,10,0,"['4', '3', '3', '3', '3', '2']","[112.69188039994333, 112.95581199997105, 113.21193439990748, 114.60383339994587, 114.89978360000532, 115.16382869996596]",1,6,# # # # # #,None
36,0.0,36,36.0,36.0,36.0,36.0,36.0,20.0,20.0,,3,False,0.0,None,right,False,2,1,0,enc,0,0,1,[],[],1,6,1 1 3 2 2 4,6
37,4.615879999939351,37,37.0,37.0,37.0,37.0,37.0,21.0,21.0,,3,True,0.5,acc,right,False,2,1,6,ret,1,10,1,"['1', '1', '3', '2', '2', '4']","[121.95594979997259, 122.1077854000032, 122.75583199993707, 123.6198779999977, 126.14787439990323, 126.57182979991194]",1,6,# # # # # #,None
38,0.0,38,38.0,38.0,38.0,38.0,38.0,22.0,22.0,,2,False,0.0,None,right,False,2,1,0,enc,0,0,0,[],[],1,6,4 1 1 1 4 4,4
39,2.7039428999414667,39,39.0,39.0,39.0,39.0,39.0,23.0,23.0,,2,True,0.5,acc,right,False,2,1,6,ret,1,10,0,"['4', '4', '1', '1', '1', '4']","[136.3958249000134, 136.75580909999553, 137.61986979993526, 137.9558071999345, 138.4117931999499, 139.09976779995486]",1,6,# # # # # #,None
40,0.0,40,40.0,40.0,40.0,40.0,0.0,0.0,,,3,False,0.0,None,right,False,2,1,0,enc,0,0,1,[],[],2,6,3 2 2 3 2 3,6
41,1.144153399975039,41,41.0,41.0,41.0,41.0,1.0,1.0,,,3,True,0.5,acc,right,False,2,1,6,ret,1,10,1,"['3', '2', '2', '3', '2', '3']","[5.1031040999805555, 5.33511629991699, 5.535015699919313, 5.887038699933328, 6.087033299962059, 6.2472574999555945]",2,6,# # # # # #,None
42,0.0,42,42.0,42.0,42.0,42.0,2.0,2.0,,,2,False,0.0,None,right,False,2,1,0,enc,0,0,1,[],[],2,6,2 4 4 4 4 1,4
43,1.2160872000968084,43,43.0,43.0,43.0,43.0,3.0,3.0,,,2,True,0.5,acc,right,False,2,1,6,ret,1,10,1,"['2', '4', '4', '4', '4', '1']","[15.151055699912831, 15.40800329996273, 15.823072099941783, 15.999103299924172, 16.22304849990178, 16.36714290000964]",2,6,# # # # # #,None
44,0.0,44,44.0,44.0,44.0,44.0,4.0,4.0,,,3,False,0.0,None,right,False,2,1,0,enc,0,0,1,[],[],2,6,1 4 1 4 4 3,6
45,2.2718836000422016,45,45.0,45.0,45.0,45.0,5.0,5.0,,,3,True,0.5,acc,right,False,2,1,6,ret,1,10,1,"['1', '4', '1', '4', '4', '3']","[23.103203799924813, 23.73511739994865, 24.0470816999441, 24.559077799902298, 24.879080999991857, 25.375087399967015]",2,6,# # # # # #,None
46,0.0,46,46.0,46.0,46.0,46.0,6.0,6.0,,,3,False,0.0,None,right,False,2,1,0,enc,0,0,0,[],[],2,6,1 3 1 3 1 3,6
47,3.1439470000332217,47,47.0,47.0,47.0,47.0,7.0,7.0,,,3,True,0.5,acc,right,False,2,1,6,ret,1,10,0,"['3', '1', '3', '1', '3', '1']","[32.535127399954945, 32.83117999997921, 33.11920559999999, 34.767269899952225, 35.37506300001405, 35.67907439998817]",2,6,# # # # # #,None
48,0.0,48,48.0,48.0,48.0,48.0,8.0,8.0,,,2,False,0.0,None,right,False,2,1,0,enc,0,0,0,[],[],2,6,2 1 4 4 4 2,4
49,4.1039193000178775,49,49.0,49.0,49.0,49.0,9.0,9.0,,,2,True,0.5,acc,right,False,2,1,6,ret,1,10,0,"['2', '4', '4', '4', '1', '2']","[45.16712669993285, 45.64770619990304, 47.007190299918875, 47.359175399993546, 48.95923049992416, 49.27104599995073]",2,6,# # # # # #,None
50,0.0,50,50.0,50.0,50.0,50.0,10.0,10.0,,,3,False,0.0,None,right,False,2,1,0,enc,0,0,0,[],[],2,6,3 3 4 1 2 3,6
51,2.767959299962968,51,51.0,51.0,51.0,51.0,11.0,11.0,,,3,True,0.5,acc,right,False,2,1,6,ret,1,10,0,"['3', '2', '1', '4', '3', '3']","[56.62316419999115, 56.82319099991582, 57.08711849991232, 58.80715629993938, 59.087111399974674, 59.39112349995412]",2,6,# # # # # #,None
52,0.0,52,52.0,52.0,52.0,52.0,12.0,12.0,,,2,False,0.0,None,right,False,2,1,0,enc,0,0,0,[],[],2,6,4 2 2 2 3 1,4
53,3.3520367000019182,53,53.0,53.0,53.0,53.0,13.0,13.0,,,2,True,0.5,acc,right,False,2,1,6,ret,1,10,0,"['1', '3', '2', '2', '2', '4']","[68.28704869991634, 68.52701550000347, 70.23104989994317, 70.52708949998487, 71.359001899953, 71.63908539991826]",2,6,# # # # # #,None
54,0.0,54,54.0,54.0,54.0,54.0,14.0,14.0,,,3,False,0.0,None,right,False,2,1,0,enc,0,0,1,[],[],2,6,3 2 2 1 1 4,6
55,1.2001743000000715,55,55.0,55.0,55.0,55.0,15.0,15.0,,,3,True,0.5,acc,right,False,2,1,6,ret,1,10,1,"['3', '2', '2', '1', '1', '4']","[78.76687549997587, 79.02298409992363, 79.22295139997732, 79.50308339996263, 79.71901469992008, 79.96704979997594]",2,6,# # # # # #,None
56,0.0,56,56.0,56.0,56.0,56.0,16.0,16.0,,,2,False,0.0,None,right,False,2,1,0,enc,0,0,0,[],[],2,6,4 3 2 1 2 2,4
57,3.704120399896056,57,57.0,57.0,57.0,57.0,17.0,17.0,,,2,True,0.5,acc,right,False,2,1,6,ret,1,10,0,"['2', '2', '1', '2', '3', '4']","[89.05484170001, 89.31099829997402, 89.99098889995366, 92.19906049990095, 92.45505459990818, 92.75896209990606]",2,6,# # # # # #,None
58,0.0,58,58.0,58.0,58.0,58.0,18.0,18.0,,,2,False,0.0,None,right,False,2,1,0,enc,0,0,1,[],[],2,6,3 1 4 4 2 3,4
59,3.4000000000232835,59,59.0,59.0,59.0,59.0,19.0,19.0,,,2,True,0.5,acc,right,True,2,1,3,ret,1,3,1,"['3', '3', '4', '2', '1', '3']","[103.71099629998207, 103.95899809990078, 105.26298609992955, 105.53498849994503, 106.95898369990755, 107.11099630000535]",2,6,# # # # # #,None
60,0.0,60,60.0,60.0,60.0,60.0,20.0,20.0,,,3,False,0.0,None,right,False,2,1,0,enc,0,0,0,[],[],2,6,1 1 4 4 3 2,6
61,2.5992677999893203,61,61.0,61.0,61.0,61.0,21.0,21.0,,,3,True,0.5,acc,right,False,2,1,6,ret,1,10,0,"['2', '3', '4', '4', '1', '1']","[114.73562519997358, 114.9270220999606, 115.1670419999864, 116.70304359996226, 117.07095139997546, 117.3348929999629]",2,6,# # # # # #,None
62,0.0,62,62.0,62.0,62.0,62.0,22.0,22.0,,,2,False,0.0,None,right,False,2,1,0,enc,0,0,1,[],[],2,6,4 2 1 2 4 1,4
63,2.607635000022128,63,63.0,63.0,63.0,63.0,23.0,23.0,,,2,True,0.5,acc,right,True,2,1,4,ret,1,4,1,"['1', '2', '4', '2', '4', '1']","[128.8152791999746, 128.94295840000268, 130.15092699998058, 130.3269588999683, 131.15104579995386, 131.42291419999674]",2,6,# # # # # #,None
64,0.0,64,64.0,64.0,64.0,0.0,0.0,,,,2,False,0.0,None,right,False,2,1,0,enc,0,0,1,[],[],3,6,1 3 3 1 2 3,4
65,1.6159779999870807,65,65.0,65.0,65.0,1.0,1.0,,,,2,True,0.5,acc,right,False,2,1,6,ret,1,10,1,"['1', '3', '3', '1', '2', '3']","[7.128657100023702, 7.353172900038771, 7.968597700004466, 8.184643300017342, 8.488709599943832, 8.744635100010782]",3,6,# # # # # #,None
66,0.0,66,66.0,66.0,66.0,2.0,2.0,,,,3,False,0.0,None,right,False,2,1,0,enc,0,0,0,[],[],3,6,2 3 1 2 2 1,6
67,4.3760416000150135,67,67.0,67.0,67.0,3.0,3.0,,,,3,True,0.5,acc,right,True,2,1,3,ret,1,3,0,"['1', '2', '2', '3', '2', '1']","[16.560596499941312, 16.928624099935405, 17.28871969995089, 19.296648900024593, 19.888749100035056, 20.936638099956326]",3,6,# # # # # #,None
68,0.0,68,68.0,68.0,68.0,4.0,4.0,,,,3,False,0.0,None,right,False,2,1,0,enc,0,0,1,[],[],3,6,4 1 3 2 2 1,6
69,1.464110599947162,69,69.0,69.0,69.0,5.0,5.0,,,,3,True,0.5,acc,right,False,2,1,6,ret,1,10,1,"['4', '1', '3', '2', '2', '1']","[27.728642200003378, 28.072676899959333, 28.480658899992704, 28.832631699973717, 28.976628999924287, 29.19275279995054]",3,6,# # # # # #,None
70,0.0,70,70.0,70.0,70.0,6.0,6.0,,,,2,False,0.0,None,right,False,2,1,0,enc,0,0,0,[],[],3,6,3 4 4 3 4 1,4
71,6.816092199995183,71,71.0,71.0,71.0,7.0,7.0,,,,2,True,0.5,acc,right,False,2,1,6,ret,1,10,0,"['1', '4', '3', '4', '4', '3']","[38.17666330002248, 38.528779099928215, 40.57672589994036, 40.87260060000699, 44.60076419997495, 44.992755500017665]",3,6,# # # # # #,None
72,0.0,72,72.0,72.0,72.0,8.0,8.0,,,,3,False,0.0,None,right,False,2,1,0,enc,0,0,1,[],[],3,6,1 2 2 4 4 3,6
73,1.663950499962084,73,73.0,73.0,73.0,9.0,9.0,,,,3,True,0.5,acc,right,False,2,1,6,ret,1,10,1,"['1', '2', '2', '4', '4', '3']","[51.48067159997299, 51.768584799952805, 52.06463099992834, 52.59263909992296, 52.86466249998193, 53.14462209993508]",3,6,# # # # # #,None
74,0.0,74,74.0,74.0,74.0,10.0,10.0,,,,2,False,0.0,None,right,False,2,1,0,enc,0,0,0,[],[],3,6,4 4 3 2 3 3,4
75,2.248053299961612,75,75.0,75.0,75.0,11.0,11.0,,,,2,True,0.5,acc,right,False,2,1,6,ret,1,10,0,"['3', '3', '2', '3', '4', '4']","[62.25662050000392, 62.40856280003209, 63.82452629995532, 63.92856789997313, 64.33666859997902, 64.50467379996553]",3,6,# # # # # #,None
76,0.0,76,76.0,76.0,76.0,12.0,12.0,,,,3,False,0.0,None,right,False,2,1,0,enc,0,0,0,[],[],3,6,2 4 3 2 2 4,6
77,2.9443761000875384,77,77.0,77.0,77.0,13.0,13.0,,,,3,True,0.5,acc,right,False,2,1,6,ret,1,10,0,"['4', '2', '2', '3', '4', '2']","[71.67246289993636, 71.9526170999743, 72.19263309997041, 73.76856280001812, 74.27259179996327, 74.6168390000239]",3,6,# # # # # #,None
78,0.0,78,78.0,78.0,78.0,14.0,14.0,,,,2,False,0.0,None,right,False,2,1,0,enc,0,0,0,[],[],3,6,2 3 4 4 1 2,4
79,2.5842034999514,79,79.0,79.0,79.0,15.0,15.0,,,,2,True,0.5,acc,right,False,2,1,6,ret,1,10,0,"['2', '1', '4', '4', '3', '2']","[83.62445130001288, 83.91271439997945, 84.79256450000685, 85.08070819999557, 86.04053170001134, 86.20865479996428]",3,6,# # # # # #,None
80,0.0,80,80.0,80.0,80.0,16.0,16.0,,,,3,False,0.0,None,right,False,2,1,0,enc,0,0,1,[],[],3,6,2 1 1 2 4 1,6
81,1.5120031000114975,81,81.0,81.0,81.0,17.0,17.0,,,,3,True,0.5,acc,right,False,2,1,6,ret,1,10,1,"['2', '1', '1', '2', '4', '1']","[93.02456549997441, 93.43252559995744, 93.66455049999058, 94.01666630001273, 94.28855910000857, 94.53656859998591]",3,6,# # # # # #,None
82,0.0,82,82.0,82.0,82.0,18.0,18.0,,,,3,False,0.0,None,right,False,2,1,0,enc,0,0,0,[],[],3,6,3 2 1 1 3 2,6
83,1.9120880999835208,83,83.0,83.0,83.0,19.0,19.0,,,,3,True,0.5,acc,right,False,2,1,6,ret,1,10,0,"['2', '3', '1', '1', '2', '3']","[101.46458989998791, 101.65653489995748, 101.91246349993162, 103.00048809999134, 103.20852190000005, 103.37667799997143]",3,6,# # # # # #,None
84,0.0,84,84.0,84.0,84.0,20.0,20.0,,,,2,False,0.0,None,right,False,2,1,0,enc,0,0,1,[],[],3,6,1 4 1 4 2 1,4
85,1.3202025999780744,85,85.0,85.0,85.0,21.0,21.0,,,,2,True,0.5,acc,right,False,2,1,6,ret,1,10,1,"['1', '4', '1', '4', '2', '1']","[111.88040949997958, 112.16056520002894, 112.41716259997338, 112.68058029992972, 112.94464180001523, 113.20061209995765]",3,6,# # # # # #,None
86,0.0,86,86.0,86.0,86.0,22.0,22.0,,,,2,False,0.0,None,right,False,2,1,0,enc,0,0,1,[],[],3,6,1 3 2 1 1 3,4
87,1.264831000007689,87,87.0,87.0,87.0,23.0,23.0,,,,2,True,0.5,acc,right,False,2,1,6,ret,1,10,1,"['1', '3', '2', '1', '1', '3']","[121.97644789994229, 122.20051470003091, 122.45655989996158, 122.69647930003703, 123.00156519992743, 123.24127889994998]",3,6,# # # # # #,None
88,0.0,88,88.0,88.0,0.0,0.0,,,,,2,False,0.0,None,right,False,2,1,0,enc,0,0,1,[],[],4,6,4 4 1 3 2 2,4
89,3.0639289999380708,89,89.0,89.0,1.0,1.0,,,,,2,True,0.5,acc,right,True,2,1,5,ret,1,5,1,"['4', '4', '1', '3', '1', '2']","[8.23000670003239, 8.493970099953003, 9.84606819995679, 10.229974300018512, 11.03804290003609, 11.293935699970461]",4,6,# # # # # #,None
90,0.0,90,90.0,90.0,2.0,2.0,,,,,2,False,0.0,None,right,False,2,1,0,enc,0,0,0,[],[],4,6,3 2 1 3 4 3,4
91,8.33587389998138,91,91.0,91.0,3.0,3.0,,,,,2,True,0.5,acc,right,True,2,1,4,ret,1,4,0,"['3', '4', '3', '1', '1', '1']","[20.31811110000126, 20.533954999991693, 25.64601779996883, 26.17405549995601, 27.74992560001556, 28.65398499998264]",4,6,# # # # # #,None
92,0.0,92,92.0,92.0,4.0,4.0,,,,,3,False,0.0,None,right,False,2,1,0,enc,0,0,0,[],[],4,6,2 3 2 3 1 2,6
93,5.1599414999363935,93,93.0,93.0,5.0,5.0,,,,,3,True,0.5,acc,right,True,2,1,4,ret,1,4,0,"['2', '1', '3', '2', '2', '3']","[35.5899646000471, 35.81400500005111, 36.06998609995935, 40.07795659999829, 40.34197199996561, 40.74990609998349]",4,6,# # # # # #,None
94,0.0,94,94.0,94.0,6.0,6.0,,,,,3,False,0.0,None,right,False,2,1,0,enc,0,0,1,[],[],4,6,4 4 4 2 2 1,6
95,1.3120235999813303,95,95.0,95.0,7.0,7.0,,,,,3,True,0.5,acc,right,False,2,1,6,ret,1,10,1,"['4', '4', '4', '2', '2', '1']","[47.69402050005738, 47.90995939995628, 48.15803509997204, 48.5419490999775, 48.773939899983816, 49.00604410003871]",4,6,# # # # # #,None
96,0.0,96,96.0,96.0,8.0,8.0,,,,,2,False,0.0,None,right,False,2,1,0,enc,0,0,1,[],[],4,6,3 1 4 3 4 1,4
97,2.232008700026199,97,97.0,97.0,9.0,9.0,,,,,2,True,0.5,acc,right,True,2,1,5,ret,1,5,1,"['3', '1', '4', '3', '3', '1']","[58.173958700033836, 58.38194019999355, 58.773946700035594, 59.0298904000083, 60.182013600016944, 60.405967400060035]",4,6,# # # # # #,None
98,0.0,98,98.0,98.0,10.0,10.0,,,,,3,False,0.0,None,right,False,2,1,0,enc,0,0,1,[],[],4,6,3 1 4 2 4 3,6
99,2.616068700095638,99,99.0,99.0,11.0,11.0,,,,,3,True,0.5,acc,right,False,2,1,6,ret,1,10,1,"['3', '1', '4', '2', '4', '3']","[67.42991249996703, 67.70988510001916, 67.99792969995178, 69.48594250006136, 69.80590999999549, 70.04598120006267]",4,6,# # # # # #,None
100,0.0,100,100.0,100.0,12.0,12.0,,,,,2,False,0.0,None,right,False,2,1,0,enc,0,0,0,[],[],4,6,2 1 4 1 4 4,4
101,4.520068000070751,101,101.0,101.0,13.0,13.0,,,,,2,True,0.5,acc,right,False,2,1,6,ret,1,10,0,"['4', '4', '1', '4', '1', '2']","[78.78985119995195, 78.94188820000272, 81.02988269994967, 81.24602079996839, 83.05393779999577, 83.3099192000227]",4,6,# # # # # #,None
102,0.0,102,102.0,102.0,14.0,14.0,,,,,3,False,0.0,None,right,False,2,1,0,enc,0,0,0,[],[],4,6,4 4 4 2 2 3,6
103,1.8320196000859141,103,103.0,103.0,15.0,15.0,,,,,3,True,0.5,acc,right,False,2,1,6,ret,1,10,0,"['3', '2', '2', '4', '4', '4']","[90.6219676999608, 90.8698863000609, 91.13389080006164, 91.73398580006324, 92.23865049995948, 92.45398730004672]",4,6,# # # # # #,None
104,0.0,104,104.0,104.0,16.0,16.0,,,,,2,False,0.0,None,right,False,2,1,0,enc,0,0,1,[],[],4,6,4 2 3 2 4 3,4
105,1.5119286000262946,105,105.0,105.0,17.0,17.0,,,,,2,True,0.5,acc,right,False,2,1,6,ret,1,10,1,"['4', '2', '3', '2', '4', '3']","[101.58194850001018, 101.80588410003111, 102.00603499996942, 102.1978003999684, 102.8939089999767, 103.09387710003648]",4,6,# # # # # #,None
106,0.0,106,106.0,106.0,18.0,18.0,,,,,2,False,0.0,None,right,False,2,1,0,enc,0,0,0,[],[],4,6,4 4 2 3 3 4,4
107,2.455911400029436,107,107.0,107.0,19.0,19.0,,,,,2,True,0.5,acc,right,False,2,1,6,ret,1,10,0,"['4', '3', '3', '2', '4', '4']","[112.02998350001872, 112.25390440004412, 113.59787619998679, 113.85387810005341, 114.27774509997107, 114.48589490004815]",4,6,# # # # # #,None
108,0.0,108,108.0,108.0,20.0,20.0,,,,,3,False,0.0,None,right,False,2,1,0,enc,0,0,1,[],[],4,6,3 3 3 1 1 2,6
109,1.3439042000100017,109,109.0,109.0,21.0,21.0,,,,,3,True,0.5,acc,right,False,2,1,6,ret,1,10,1,"['3', '3', '3', '1', '1', '2']","[121.19796729995869, 121.4061107999878, 121.62994440004695, 122.08586810005363, 122.34984030004125, 122.54187149996869]",4,6,# # # # # #,None
110,0.0,110,110.0,110.0,22.0,22.0,,,,,3,False,0.0,None,right,False,2,1,0,enc,0,0,0,[],[],4,6,1 4 3 2 2 1,6
111,2.9919854000909254,111,111.0,111.0,23.0,23.0,,,,,3,True,0.5,acc,right,True,2,1,4,ret,1,4,0,"['1', '2', '2', '4', '3', '1']","[130.27789599995594, 130.58189400006086, 130.85376069997437, 132.50180430000182, 132.79783479997423, 133.26988140004687]",4,6,# # # # # #,None
112,0.0,112,112.0,0.0,0.0,,,,,,3,False,0.0,None,right,False,2,1,0,enc,0,0,1,[],[],5,6,4 3 1 1 1 1,6
113,1.1202493000309914,113,113.0,1.0,1.0,,,,,,3,True,0.5,acc,right,False,2,1,6,ret,1,10,1,"['4', '3', '1', '1', '1', '1']","[5.284728100057691, 5.51688530005049, 5.780821899999864, 6.068812800105661, 6.236781200044788, 6.404977400088683]",5,6,# # # # # #,None
114,0.0,114,114.0,2.0,2.0,,,,,,3,False,0.0,None,right,False,2,1,0,enc,0,0,1,[],[],5,6,2 4 2 3 2 4,6
115,1.6316607999615371,115,115.0,3.0,3.0,,,,,,3,True,0.5,acc,right,False,2,1,6,ret,1,10,1,"['2', '4', '2', '3', '2', '4']","[13.421303300070576, 13.668999000103213, 13.892883200081997, 14.660772000090219, 14.844756600097753, 15.052964100032113]",5,6,# # # # # #,None
116,0.0,116,116.0,4.0,4.0,,,,,,2,False,0.0,None,right,False,2,1,0,enc,0,0,1,[],[],5,6,4 3 3 2 2 2,4
117,2.679902200005017,117,117.0,5.0,5.0,,,,,,2,True,0.5,acc,right,False,2,1,6,ret,1,10,1,"['4', '3', '3', '2', '2', '2']","[23.756861500092782, 23.989756500115618, 24.764778700075112, 25.068870400078595, 26.268850200111046, 26.4367637000978]",5,6,# # # # # #,None
118,0.0,118,118.0,6.0,6.0,,,,,,2,False,0.0,None,right,False,2,1,0,enc,0,0,1,[],[],5,6,2 3 1 3 2 3,4
119,1.1688390000490472,119,119.0,7.0,7.0,,,,,,2,True,0.5,acc,right,False,2,1,6,ret,1,10,1,"['2', '3', '1', '3', '2', '3']","[34.98064449999947, 35.13277840008959, 35.45273950009141, 35.628789300099015, 35.996855100034736, 36.14948350004852]",5,6,# # # # # #,None
120,0.0,120,120.0,8.0,8.0,,,,,,2,False,0.0,None,right,False,2,1,0,enc,0,0,0,[],[],5,6,3 2 3 1 3 4,4
121,4.712100200005807,121,121.0,9.0,9.0,,,,,,2,True,0.5,acc,right,False,2,1,6,ret,1,10,0,"['4', '3', '1', '3', '2', '3']","[45.15661820000969, 45.253647300065495, 47.900756300077774, 48.204769500065595, 49.58077250001952, 49.868718400015496]",5,6,# # # # # #,None
122,0.0,122,122.0,10.0,10.0,,,,,,3,False,0.0,None,right,False,2,1,0,enc,0,0,0,[],[],5,6,1 3 1 4 1 1,6
123,2.24798650003504,123,123.0,11.0,11.0,,,,,,3,True,0.5,acc,right,False,2,1,6,ret,1,10,0,"['1', '1', '4', '1', '3', '1']","[56.78885610005818, 56.94087000004947, 57.22873890004121, 58.452710700104944, 58.75676050002221, 59.03684260009322]",5,6,# # # # # #,None
124,0.0,124,124.0,12.0,12.0,,,,,,3,False,0.0,None,right,False,2,1,0,enc,0,0,0,[],[],5,6,3 3 4 4 1 1,6
125,6.567982999957168,125,125.0,13.0,13.0,,,,,,3,True,0.5,acc,right,True,2,1,5,ret,1,5,0,"['1', '1', '4', '1', '3', '3']","[65.78875150007661, 67.11678570008371, 67.50074260006659, 71.3326059000101, 71.94155540002976, 72.35673450003378]",5,6,# # # # # #,None
126,0.0,126,126.0,14.0,14.0,,,,,,2,False,0.0,None,right,False,2,1,0,enc,0,0,0,[],[],5,6,1 4 1 2 4 4,4
127,4.176063299993984,127,127.0,15.0,15.0,,,,,,2,True,0.5,acc,right,False,2,1,6,ret,1,10,0,"['4', '4', '2', '1', '4', '1']","[81.51669500011485, 81.69284590007737, 83.9246796000516, 84.09289460000582, 85.51686100009829, 85.69275830010884]",5,6,# # # # # #,None
128,0.0,128,128.0,16.0,16.0,,,,,,2,False,0.0,None,right,False,2,1,0,enc,0,0,1,[],[],5,6,1 2 2 1 4 2,4
129,3.2318686000071466,129,129.0,17.0,17.0,,,,,,2,True,0.5,acc,right,True,2,1,5,ret,1,5,1,"['1', '4', '2', '1', '4', '2']","[95.4127275000792, 96.15670380007941, 97.1167764000129, 97.31667520001065, 98.42074510001112, 98.64459610008635]",5,6,# # # # # #,None
130,0.0,130,130.0,18.0,18.0,,,,,,3,False,0.0,None,right,False,2,1,0,enc,0,0,1,[],[],5,6,2 2 1 3 1 3,6
131,1.1211332998936996,131,131.0,19.0,19.0,,,,,,3,True,0.5,acc,right,False,2,1,6,ret,1,10,1,"['2', '2', '1', '3', '1', '3']","[105.57271190010943, 105.71678970009089, 105.93276520003565, 106.26865420001559, 106.50075040000957, 106.69384520000312]",5,6,# # # # # #,None
132,0.0,132,132.0,20.0,20.0,,,,,,2,False,0.0,None,right,False,2,1,0,enc,0,0,0,[],[],5,6,3 4 2 3 1 4,4
133,5.119917400064878,133,133.0,21.0,21.0,,,,,,2,True,0.5,acc,right,False,2,1,6,ret,1,10,0,"['4', '1', '3', '2', '4', '3']","[115.70074480003677, 116.1007204001071, 118.03658070007805, 118.27680530003272, 120.55662120005582, 120.82066220010165]",5,6,# # # # # #,None
134,0.0,134,134.0,22.0,22.0,,,,,,3,False,0.0,None,right,False,2,1,0,enc,0,0,0,[],[],5,6,2 3 3 3 4 2,6
135,9.504068100010043,135,135.0,23.0,23.0,,,,,,3,True,0.5,acc,right,True,2,1,3,ret,1,3,0,"['4', '3', '4', '3', '3', '2']","[128.18862070003524, 128.38866940001026, 132.88476860010996, 136.63663870003074, 137.1726799000753, 137.6926888000453]",5,6,# # # # # #,None
136,0.0,136,0.0,0.0,,,,,,,2,False,0.0,None,right,False,2,1,0,enc,0,0,1,[],[],6,6,2 3 1 1 2 3,4
137,1.192060100031085,137,1.0,1.0,,,,,,,2,True,0.5,acc,right,False,2,1,6,ret,1,10,1,"['2', '3', '1', '1', '2', '3']","[7.087467200006358, 7.175439600017853, 7.51953140005935, 7.687516800011508, 8.175474000046961, 8.279527300037444]",6,6,# # # # # #,None
138,0.0,138,2.0,2.0,,,,,,,3,False,0.0,None,right,False,2,1,0,enc,0,0,1,[],[],6,6,2 3 3 4 2 2,6
139,1.2561229000566527,139,3.0,3.0,,,,,,,3,True,0.5,acc,right,False,2,1,6,ret,1,10,1,"['2', '3', '3', '4', '2', '2']","[14.847383499960415, 15.079595500021242, 15.287375399959274, 15.655491500045173, 15.903495199978352, 16.103506400017068]",6,6,# # # # # #,None
140,0.0,140,4.0,4.0,,,,,,,2,False,0.0,None,right,False,2,1,0,enc,0,0,0,[],[],6,6,3 1 2 4 4 4,4
141,3.968107199994847,141,5.0,5.0,,,,,,,2,True,0.5,acc,right,False,2,1,6,ret,1,10,0,"['4', '4', '4', '2', '1', '3']","[25.03131640003994, 25.34344379999675, 27.311468800064176, 27.607440100051463, 28.751436799997464, 28.99942360003479]",6,6,# # # # # #,None
142,0.0,142,6.0,6.0,,,,,,,3,False,0.0,None,right,False,2,1,0,enc,0,0,1,[],[],6,6,3 3 1 3 2 2,6
143,2.392074199975468,143,7.0,7.0,,,,,,,3,True,0.5,acc,right,False,2,1,6,ret,1,10,1,"['3', '3', '1', '3', '2', '2']","[35.83145599998534, 36.90342570003122, 37.12749330000952, 37.75143629999366, 37.98342720000073, 38.223530199960805]",6,6,# # # # # #,None
144,0.0,144,8.0,8.0,,,,,,,2,False,0.0,None,right,False,2,1,0,enc,0,0,1,[],[],6,6,1 2 2 2 4 1,4
145,1.5600339999655262,145,9.0,9.0,,,,,,,2,True,0.5,acc,right,False,2,1,6,ret,1,10,1,"['1', '2', '2', '2', '4', '1']","[46.911408100044355, 47.11938250006642, 47.50337140006013, 47.73544209997635, 48.15942250005901, 48.47144210000988]",6,6,# # # # # #,None
146,0.0,146,10.0,10.0,,,,,,,3,False,0.0,None,right,False,2,1,0,enc,0,0,1,[],[],6,6,3 1 4 4 2 4,6
147,1.7598782998975366,147,11.0,11.0,,,,,,,3,True,0.5,acc,right,False,2,1,6,ret,1,10,1,"['3', '1', '4', '4', '2', '4']","[55.33553350006696, 55.696182399988174, 55.999520399956964, 56.519454700057395, 56.82332119997591, 57.095411799964495]",6,6,# # # # # #,None
148,0.0,148,12.0,12.0,,,,,,,3,False,0.0,None,right,False,2,1,0,enc,0,0,0,[],[],6,6,3 4 1 3 4 2,6
149,3.743817999958992,149,13.0,13.0,,,,,,,3,True,0.5,acc,right,False,2,1,6,ret,1,10,0,"['2', '4', '3', '1', '4', '3']","[64.12752680003177, 64.55143009999301, 64.83951169997454, 66.8953548000427, 67.5193834999809, 67.87134479999077]",6,6,# # # # # #,None
150,0.0,150,14.0,14.0,,,,,,,3,False,0.0,None,right,False,2,1,0,enc,0,0,0,[],[],6,6,1 2 1 3 1 1,6
151,2.2878457999322563,151,15.0,15.0,,,,,,,3,True,0.5,acc,right,False,2,1,6,ret,1,10,0,"['1', '1', '3', '1', '2', '1']","[74.72740930004511, 74.9594483000692, 75.49539599998388, 76.60741599998437, 76.8475339000579, 77.01525509997737]",6,6,# # # # # #,None
152,0.0,152,16.0,16.0,,,,,,,2,False,0.0,None,right,False,2,1,0,enc,0,0,1,[],[],6,6,2 1 4 3 3 2,4
153,5.7760053999954835,153,17.0,17.0,,,,,,,2,True,0.5,acc,right,True,2,1,5,ret,1,5,1,"['2', '1', '4', '1', '3', '2']","[86.11942830006592, 86.37542529997882, 89.09541279997211, 90.6793711000355, 91.75945640006103, 91.8954337000614]",6,6,# # # # # #,None
154,0.0,154,18.0,18.0,,,,,,,2,False,0.0,None,right,False,2,1,0,enc,0,0,0,[],[],6,6,1 4 4 1 2 3,4
155,4.031880999915302,155,19.0,19.0,,,,,,,2,True,0.5,acc,right,False,2,1,6,ret,1,10,0,"['3', '2', '1', '4', '4', '1']","[101.03147270006593, 101.29542710003443, 103.47943549999036, 103.99145229998976, 104.80733049998526, 105.06335369998123]",6,6,# # # # # #,None
156,0.0,156,20.0,20.0,,,,,,,2,False,0.0,None,right,False,2,1,0,enc,0,0,0,[],[],6,6,2 1 2 3 4 4,4
157,3.255969400051981,157,21.0,21.0,,,,,,,2,True,0.5,acc,right,False,2,1,6,ret,1,10,0,"['4', '4', '3', '2', '1', '2']","[114.26331539999228, 114.47126480005682, 116.4072526000673, 116.7194037999725, 117.26335899997503, 117.51928480004426]",6,6,# # # # # #,None
158,0.0,158,22.0,22.0,,,,,,,3,False,0.0,None,right,False,2,1,0,enc,0,0,0,[],[],6,6,3 1 3 4 2 3,6
159,2.695949399960228,159,23.0,23.0,,,,,,,3,True,0.5,acc,right,False,2,1,6,ret,1,10,0,"['3', '2', '4', '3', '1', '3']","[126.67934490006883, 126.92036730004475, 127.19937290006783, 128.81535180006176, 129.127351299976, 129.37529430002905]",6,6,# # # # # #,None
160,0.0,0,0.0,,,,,,,,2,False,0.0,None,right,False,2,1,0,enc,0,0,1,[],[],7,6,2 4 4 2 1 3,4
161,3.2958899000659585,1,1.0,,,,,,,,2,True,0.5,acc,right,True,2,1,5,ret,1,5,1,"['2', '4', '4', '1', '1', '3']","[6.99786420003511, 7.429906800040044, 8.285827800049447, 8.629844100098126, 9.997905600001104, 10.293754100101069]",7,6,# # # # # #,None
162,0.0,2,2.0,,,,,,,,3,False,0.0,None,right,False,2,1,0,enc,0,0,1,[],[],7,6,2 4 3 1 4 4,6
163,2.0159931000089277,3,3.0,,,,,,,,3,True,0.5,acc,right,False,2,1,6,ret,1,10,1,"['2', '4', '3', '1', '4', '4']","[16.917923200060613, 17.18991499999538, 17.41397069999948, 17.725821800064296, 18.7418214000063, 18.93391630006954]",7,6,# # # # # #,None
164,0.0,4,4.0,,,,,,,,3,False,0.0,None,right,False,2,1,0,enc,0,0,1,[],[],7,6,3 3 4 4 4 1,6
165,1.0159416999667883,5,5.0,,,,,,,,3,True,0.5,acc,right,False,2,1,6,ret,1,10,1,"['3', '3', '4', '4', '4', '1']","[25.597897700034082, 25.741866199998185, 25.94981270004064, 26.253853000001982, 26.42190740001388, 26.61383940000087]",7,6,# # # # # #,None
166,0.0,6,6.0,,,,,,,,2,False,0.0,None,right,False,2,1,0,enc,0,0,1,[],[],7,6,4 1 2 3 3 2,4
167,1.823461799998768,7,7.0,,,,,,,,2,True,0.5,acc,right,False,2,1,6,ret,1,10,1,"['4', '1', '2', '3', '3', '2']","[35.286416799994186, 35.54168760008179, 36.36584760004189, 36.63784080010373, 36.99089100002311, 37.10987859999295]",7,6,# # # # # #,None
168,0.0,8,8.0,,,,,,,,3,False,0.0,None,right,False,2,1,0,enc,0,0,0,[],[],7,6,3 4 2 1 2 2,6
169,3.2078682999126613,9,9.0,,,,,,,,3,True,0.5,acc,right,False,2,1,6,ret,1,10,0,"['2', '2', '1', '2', '4', '3']","[44.901875400100835, 45.109949900070205, 45.34991230000742, 47.54985460010357, 47.8539208000293, 48.109743700013496]",7,6,# # # # # #,None
170,0.0,10,10.0,,,,,,,,2,False,0.0,None,right,False,2,1,0,enc,0,0,0,[],[],7,6,4 4 3 4 3 3,4
171,9.631915099918842,11,11.0,,,,,,,,2,True,0.5,acc,right,True,2,1,4,ret,1,4,0,"['3', '3', '2', '3', '3', '4']","[57.38981190009508, 57.58206480008084, 59.56610080006067, 60.214098400087096, 66.5019242000999, 67.02172700001393]",7,6,# # # # # #,None
172,0.0,12,12.0,,,,,,,,2,False,0.0,None,right,False,2,1,0,enc,0,0,0,[],[],7,6,4 1 4 1 4 2,4
173,2.3440905999159436,13,13.0,,,,,,,,2,True,0.5,acc,right,False,2,1,6,ret,1,10,0,"['2', '4', '1', '4', '1', '4']","[75.8696757000871, 76.13377150008455, 77.42181040009018, 77.74179910006933, 77.9898158001015, 78.21376630000304]",7,6,# # # # # #,None
174,0.0,14,14.0,,,,,,,,3,False,0.0,None,right,False,2,1,0,enc,0,0,1,[],[],7,6,2 1 4 3 1 2,6
175,1.5759700000053272,15,15.0,,,,,,,,3,True,0.5,acc,right,False,2,1,6,ret,1,10,1,"['2', '1', '4', '3', '1', '2']","[85.02180700004101, 85.22182130010333, 85.5669087000424, 86.13380780001171, 86.3737783000106, 86.59777700004634]",7,6,# # # # # #,None
176,0.0,16,16.0,,,,,,,,2,False,0.0,None,right,False,2,1,0,enc,0,0,0,[],[],7,6,4 4 4 2 4 2,4
177,1.887885699979961,17,17.0,,,,,,,,2,True,0.5,acc,right,False,2,1,6,ret,1,10,0,"['2', '4', '2', '4', '4', '4']","[96.52590650005732, 96.84570980002172, 97.12592230003793, 97.421794300084, 98.18178210000042, 98.41379220003728]",7,6,# # # # # #,None
178,0.0,18,18.0,,,,,,,,3,False,0.0,None,right,False,2,1,0,enc,0,0,0,[],[],7,6,3 1 4 4 2 4,6
179,3.0559101999970157,19,19.0,,,,,,,,3,True,0.5,acc,right,False,2,1,6,ret,1,10,0,"['4', '2', '4', '4', '1', '3']","[105.3979229000397, 105.59780800004955, 105.84572560002562, 107.80578110006172, 108.17379500006791, 108.45383310003672]",7,6,# # # # # #,None
180,0.0,20,20.0,,,,,,,,3,False,0.0,None,right,False,2,1,0,enc,0,0,0,[],[],7,6,1 4 2 2 3 4,6
181,4.224099199986084,21,21.0,,,,,,,,3,True,0.5,acc,right,True,2,1,4,ret,1,4,0,"['4', '3', '2', '4', '2', '1']","[116.64577940001618, 116.78975790005643, 117.09388460009359, 120.35783240001183, 120.62977470003534, 120.86987860000227]",7,6,# # # # # #,None
182,0.0,22,22.0,,,,,,,,2,False,0.0,None,right,False,2,1,0,enc,0,0,1,[],[],7,6,1 1 2 1 1 3,4
183,1.1679936000145972,23,23.0,,,,,,,,2,True,0.5,acc,right,False,2,1,6,ret,1,10,1,"['1', '1', '2', '1', '1', '3']","[129.37376930005848, 129.54185180005152, 129.87778370000888, 130.06181250000373, 130.31774140009657, 130.54176290007308]",7,6,# # # # # #,None
0,0.0,0,,,,,,,,,2,False,0.0,None,right,False,2,1,0,enc,0,0,1,[],[],8,6,4 2 3 2 2 2,4
1,1.3441227999283,1,,,,,,,,,2,True,0.5,acc,right,False,2,1,6,ret,1,10,1,"['4', '2', '3', '2', '2', '2']","[7.707082099979743, 8.035121699911542, 8.323161499924026, 8.57141909992788, 8.850898199947551, 9.051204899908043]",8,6,# # # # # #,None
2,0.0,2,,,,,,,,,2,False,0.0,None,right,False,2,1,0,enc,0,0,1,[],[],8,6,1 1 1 3 1 4,4
3,1.4718030999647453,3,,,,,,,,,2,True,0.5,acc,right,False,2,1,6,ret,1,10,1,"['1', '1', '1', '3', '1', '4']","[17.914987699943595, 18.09082889999263, 18.52283189992886, 18.77095769997686, 19.098965000011958, 19.38679079990834]",8,6,# # # # # #,None
4,0.0,4,,,,,,,,,2,False,0.0,None,right,False,2,1,0,enc,0,0,0,[],[],8,6,2 1 2 1 3 4,4
5,1.1681137999985367,5,,,,,,,,,2,True,0.5,acc,right,False,2,1,6,ret,1,10,0,"['4', '3', '1', '2', '1', '2']","[28.194883199990727, 28.31493499991484, 28.826920999912545, 28.947475099936128, 29.211079399916343, 29.362996999989264]",8,6,# # # # # #,None
6,0.0,6,,,,,,,,,2,False,0.0,None,right,False,2,1,0,enc,0,0,1,[],[],8,6,1 3 1 4 2 3,4
7,1.4240127999801189,7,,,,,,,,,2,True,0.5,acc,right,False,2,1,6,ret,1,10,1,"['1', '3', '1', '4', '2', '3']","[38.08284729998559, 38.218937299912795, 38.66675059997942, 38.858915799995884, 39.39489799994044, 39.50686009996571]",8,6,# # # # # #,None
8,0.0,8,,,,,,,,,3,False,0.0,None,right,False,2,1,0,enc,0,0,1,[],[],8,6,1 4 3 3 2 2,6
9,1.5759021999547258,9,,,,,,,,,3,True,0.5,acc,right,True,2,1,5,ret,1,5,1,"['1', '4', '3', '3', '3', '2']","[46.17896639998071, 46.49074759997893, 46.71488420001697, 47.154789199936204, 47.474933499936014, 47.754868599935435]",8,6,# # # # # #,None
10,0.0,10,,,,,,,,,2,False,0.0,None,right,False,2,1,0,enc,0,0,0,[],[],8,6,4 3 3 4 4 1,4
11,4.135976399993524,11,,,,,,,,,2,True,0.5,acc,right,False,2,1,6,ret,1,10,0,"['1', '4', '4', '3', '3', '4']","[56.842902799951844, 57.14687870000489, 59.88286569993943, 60.050851100008, 60.70698289992288, 60.97887919994537]",8,6,# # # # # #,None
12,0.0,12,,,,,,,,,2,False,0.0,None,right,False,2,1,0,enc,0,0,0,[],[],8,6,3 1 3 2 4 2,4
13,4.808114400017075,13,,,,,,,,,2,True,0.5,acc,right,False,2,1,6,ret,1,10,0,"['2', '4', '2', '3', '1', '3']","[69.86673799995333, 70.12292839994188, 72.38682539993897, 72.5788506999379, 74.44378169998527, 74.6748523999704]",8,6,# # # # # #,None
14,0.0,14,,,,,,,,,3,False,0.0,None,right,False,2,1,0,enc,0,0,1,[],[],8,6,1 3 2 3 3 3,6
15,1.071998400031589,15,,,,,,,,,3,True,0.5,acc,right,False,2,1,6,ret,1,10,1,"['1', '3', '2', '3', '3', '3']","[81.33087409997825, 81.57896830001846, 81.7868315000087, 82.09084690001328, 82.25883459998295, 82.40287250000983]",8,6,# # # # # #,None
16,0.0,16,,,,,,,,,3,False,0.0,None,right,False,2,1,0,enc,0,0,1,[],[],8,6,4 2 4 4 2 4,6
17,1.3039715000195429,17,,,,,,,,,3,True,0.5,acc,right,False,2,1,6,ret,1,10,1,"['4', '2', '4', '4', '2', '4']","[88.70684789994266, 88.90683479991276, 89.13088359998073, 89.44280740001705, 89.78715489991009, 90.0108193999622]",8,6,# # # # # #,None
18,0.0,18,,,,,,,,,3,False,0.0,None,right,False,2,1,0,enc,0,0,0,[],[],8,6,1 2 2 3 1 1,6
19,5.311913899960928,19,,,,,,,,,3,True,0.5,acc,right,True,2,1,5,ret,1,5,0,"['1', '1', '3', '2', '1', '1']","[98.09090609999839, 98.51490850001574, 99.2428505999269, 102.64315489993896, 103.10681069991551, 103.40281999995932]",8,6,# # # # # #,None
20,0.0,20,,,,,,,,,3,False,0.0,None,right,False,2,1,0,enc,0,0,0,[],[],8,6,2 3 1 1 3 4,6
21,2.639988499926403,21,,,,,,,,,3,True,0.5,acc,right,False,2,1,6,ret,1,10,0,"['4', '3', '1', '1', '3', '2']","[111.12284209998325, 111.33888449997175, 111.64289419993293, 113.26681709999684, 113.53890929999761, 113.76283059990965]",8,6,# # # # # #,None
22,0.0,22,,,,,,,,,3,False,0.0,None,right,False,2,1,0,enc,0,0,0,[],[],8,6,4 3 2 2 1 3,6
23,6.679984000045806,23,,,,,,,,,3,True,0.5,acc,right,True,2,1,5,ret,1,5,0,"['3', '1', '2', '1', '3', '4']","[121.2668088999344, 121.89078759995755, 122.32283670001198, 127.50685869995505, 127.6828291999409, 127.94679289998021]",8,6,# # # # # #,None
