,Tn,MT,chunk,display_trial_feedback,feedback_dur,feedback_type,hand,is_error,item_dur,iti_dur,number_correct,phase,phase_type,points,recall_dir,response,response_time,run_number,seq_length,seq_str,trial_dur,P1,P2,P3,P4,P5,P6,IPI_0,IPI_1,IPI_2,IPI_3,IPI_4,IPI_5
0,0,0.0,3,False,0.0,None,right,False,2,1,0,enc,0,0,1,[],[],1,6,2 2 2 4 4 3,6,0.0,0.0,0.0,0.0,0.0,0.0,0,0.0,0.0,0.0,0.0,0.0
1,1,2.0878869,3,True,0.5,acc,right,True,2,1,4,ret,1,4,1,"['2', '2', '2', '4', '3', '4']","[4.933050799998455, 5.102462699996977, 5.23693909999929, 5.605121099997632, 5.87684139999692, 7.020937699999195]",1,6,# # # # # #,None,4.933050799998455,5.102462699996977,5.23693909999929,5.605121099997632,5.87684139999692,7.020937699999195,-1.5669492000015453,0.16941189999852213,0.1344764000023133,0.3681819999983418,0.2717202999992878,1.1440963000022748
2,2,0.0,3,False,0.0,None,right,False,2,1,0,enc,0,0,1,[],[],1,6,1 3 1 3 1 2,6,0.0,0.0,0.0,0.0,0.0,0.0,0,0.0,0.0,0.0,0.0,0.0
3,3,6.2549344,3,True,0.5,acc,right,True,2,1,2,ret,1,2,1,"['3', '1', '3', '3', '3', '2']","[8.574115399998846, 13.56501500000013, 13.932970799996838, 14.100917699997808, 14.612936399997125, 14.829049799998756]",1,6,# # # # # #,None,8.574115399998846,13.56501500000013,13.932970799996838,14.100917699997808,14.612936399997125,14.829049799998756,-4.946822300000349,4.990899600001285,0.36795579999670736,0.16794690000097034,0.5120186999993166,0.21611340000163182
4,4,0.0,3,False,0.0,None,right,False,2,1,0,enc,0,0,0,[],[],1,6,4 1 4 3 4 3,6,0.0,0.0,0.0,0.0,0.0,0.0,0,0.0,0.0,0.0,0.0,0.0
5,5,10.7147074,3,True,0.5,acc,right,True,2,1,1,ret,1,1,0,"['1', '3', '1', '4', '4', '1']","[16.37021199999799, 22.46096519999992, 22.87686559999929, 25.94094959999711, 26.10889809999935, 27.084919400000217]",1,6,# # # # # #,None,16.37021199999799,22.46096519999992,22.87686559999929,25.94094959999711,26.10889809999935,27.084919400000217,-4.958837800000765,6.090753200001927,0.4159003999993729,3.0640839999978198,0.1679485000022396,0.9760213000008662
6,6,0.0,2,False,0.0,None,right,False,2,1,0,enc,0,0,1,[],[],1,6,4 3 4 1 4 4,4,0.0,0.0,0.0,0.0,0.0,0.0,0,0.0,0.0,0.0,0.0,0.0
7,7,3.1677076,2,True,0.5,acc,right,True,2,1,4,ret,1,4,1,"['4', '3', '4', '4', '4', '1']","[36.83727649999855, 37.165000499997404, 37.941036299998814, 38.56490869999834, 39.796949999999924, 40.0049841]",1,6,# # # # # #,None,36.83727649999855,37.165000499997404,37.941036299998814,38.56490869999834,39.796949999999924,40.0049841,3.252357099998335,0.3277239999988524,0.7760358000014094,0.6238723999995273,1.2320413000015833,0.20803410000007716
8,8,0.0,2,False,0.0,None,right,False,2,1,0,enc,0,0,0,[],[],1,6,4 1 3 3 1 4,4,0.0,0.0,0.0,0.0,0.0,0.0,0,0.0,0.0,0.0,0.0,0.0
9,9,3.567651,2,True,0.5,acc,right,False,2,1,6,ret,1,10,0,"['4', '1', '3', '3', '1', '4']","[49.933335399997304, 50.4048750999973, 51.23703949999981, 51.47715889999745, 53.348859300000186, 53.50098639999851]",1,6,# # # # # #,None,49.933335399997304,50.4048750999973,51.23703949999981,51.47715889999745,53.348859300000186,53.50098639999851,3.4283512999973027,0.4715396999999939,0.8321644000025117,0.24011939999763854,1.8717004000027373,0.1521270999983244
10,10,0.0,2,False,0.0,None,right,False,2,1,0,enc,0,0,0,[],[],1,6,1 3 4 2 2 2,4,0.0,0.0,0.0,0.0,0.0,0.0,0,0.0,0.0,0.0,0.0,0.0
11,11,6.1999929,2,True,0.5,acc,right,True,2,1,4,ret,1,4,0,"['2', '2', '4', '2', '3', '1']","[65.2048305999997, 65.53296380000029, 68.97291369999948, 69.26092470000003, 71.26078319999942, 71.40482349999729]",1,6,# # # # # #,None,65.2048305999997,65.53296380000029,68.97291369999948,69.26092470000003,71.26078319999942,71.40482349999729,5.2038442000011855,0.3281332000005932,3.439949899999192,0.2880110000005516,1.999858499999391,0.14404029999786871
12,12,0.0,3,False,0.0,None,right,False,2,1,0,enc,0,0,0,[],[],1,6,4 1 1 1 4 3,6,0.0,0.0,0.0,0.0,0.0,0.0,0,0.0,0.0,0.0,0.0,0.0
13,13,4.5445724,3,True,0.5,acc,right,True,2,1,3,ret,1,3,0,"['3', '3', '1', '4', '1', '3']","[80.38085969999884, 80.70881459999873, 81.70896009999706, 84.46091749999687, 84.74081749999823, 84.92543209999712]",1,6,# # # # # #,None,80.38085969999884,80.70881459999873,81.70896009999706,84.46091749999687,84.74081749999823,84.92543209999712,2.476036200001545,0.32795489999989513,1.0001454999983252,2.75195739999981,0.27990000000136206,0.18461459999889485
14,14,0.0,2,False,0.0,None,right,False,2,1,0,enc,0,0,1,[],[],1,6,1 2 3 4 3 1,4,0.0,0.0,0.0,0.0,0.0,0.0,0,0.0,0.0,0.0,0.0,0.0
15,15,2.3758798,2,True,0.5,acc,right,False,2,1,6,ret,1,10,1,"['1', '2', '3', '4', '3', '1']","[93.66095549999955, 93.87734309999723, 94.2129688999994, 94.70878049999737, 95.82886329999747, 96.03683529999762]",1,6,# # # # # #,None,93.66095549999955,93.87734309999723,94.2129688999994,94.70878049999737,95.82886329999747,96.03683529999762,2.235523400002421,0.21638759999768808,0.3356258000021626,0.4958115999979782,1.120082800000091,0.20797200000015437
16,0,0.0,3,False,0.0,None,right,False,2,1,0,enc,0,0,1,[],[],1,6,4 2 2 1 1 2,6,0.0,0.0,0.0,0.0,0.0,0.0,0,0.0,0.0,0.0,0.0,0.0
17,1,1.1358595,3,True,0.5,acc,right,True,2,1,5,ret,1,5,1,"['4', '2', '2', '1', '2', '2']","[5.382653000000573, 5.7266966000024695, 5.8785908999998355, 6.16667310000048, 6.382606900002429, 6.518512500002544]",1,6,# # # # # #,None,5.382653000000573,5.7266966000024695,5.8785908999998355,6.16667310000048,6.382606900002429,6.518512500002544,NaN,0.34404360000189627,0.15189429999736603,0.28808220000064466,0.21593380000194884,0.13590560000011465
18,2,0.0,3,False,0.0,None,right,False,2,1,0,enc,0,0,1,[],[],1,6,3 3 2 2 3 3,6,0.0,0.0,0.0,0.0,0.0,0.0,0,0.0,0.0,0.0,0.0,0.0
19,3,2.22429,3,True,0.5,acc,right,False,2,1,6,ret,1,10,1,"['3', '3', '2', '2', '3', '3']","[13.246569200000522, 13.606759900001634, 14.430573699999513, 15.022607700000663, 15.310598600000958, 15.470859200002451]",1,6,# # # # # #,None,13.246569200000522,13.606759900001634,14.430573699999513,15.022607700000663,15.310598600000958,15.470859200002451,0.22805669999797828,0.3601907000011124,0.823813799997879,0.5920340000011493,0.28799090000029537,0.160260600001493
20,4,0.0,2,False,0.0,None,right,False,2,1,0,enc,0,0,0,[],[],1,6,1 4 4 2 2 1,4,0.0,0.0,0.0,0.0,0.0,0.0,0,0.0,0.0,0.0,0.0,0.0
21,5,5.4803523,2,True,0.5,acc,right,True,2,1,3,ret,1,3,0,"['1', '2', '4', '1', '2', '1']","[24.86258530000123, 25.15129209999941, 28.254543800001557, 28.638607200002298, 30.238747800001875, 30.342937600002188]",1,6,# # # # # #,None,24.86258530000123,25.15129209999941,28.254543800001557,28.638607200002298,30.238747800001875,30.342937600002188,2.8917260999987775,0.28870679999818094,3.103251700002147,0.38406340000074124,1.6001405999995768,0.10418980000031297
22,6,0.0,3,False,0.0,None,right,False,2,1,0,enc,0,0,0,[],[],1,6,2 3 3 2 4 1,6,0.0,0.0,0.0,0.0,0.0,0.0,0,0.0,0.0,0.0,0.0,0.0
23,7,3.8720167,3,True,0.5,acc,right,False,2,1,6,ret,1,10,0,"['1', '4', '2', '3', '3', '2']","[39.534597900001245, 41.0225688999999, 41.246562399999675, 43.02255409999998, 43.222564700001385, 43.40661460000047]",1,6,# # # # # #,None,39.534597900001245,41.0225688999999,41.246562399999675,43.02255409999998,43.222564700001385,43.40661460000047,2.6916602999990573,1.4879709999986517,0.22399349999977858,1.7759917000003043,0.2000106000014057,0.1840498999990814
24,8,0.0,2,False,0.0,None,right,False,2,1,0,enc,0,0,0,[],[],1,6,4 3 2 1 3 4,4,0.0,0.0,0.0,0.0,0.0,0.0,0,0.0,0.0,0.0,0.0,0.0
25,9,7.0640825,2,True,0.5,acc,right,False,2,1,6,ret,1,10,0,"['4', '3', '1', '2', '3', '4']","[52.582905400002346, 52.79064220000146, 56.47861200000261, 56.59904420000021, 59.54266560000178, 59.64698789999966]",1,6,# # # # # #,None,52.582905400002346,52.79064220000146,56.47861200000261,56.59904420000021,59.54266560000178,59.64698789999966,2.6762908000018797,0.2077367999991111,3.687969800001156,0.12043219999759458,2.9436214000015752,0.10432229999787523
26,10,0.0,2,False,0.0,None,right,False,2,1,0,enc,0,0,1,[],[],1,6,4 3 3 1 1 2,4,0.0,0.0,0.0,0.0,0.0,0.0,0,0.0,0.0,0.0,0.0,0.0
27,11,3.1364178,2,True,0.5,acc,right,False,2,1,6,ret,1,10,1,"['4', '3', '3', '1', '1', '2']","[68.71857610000006, 69.22258100000181, 70.58253310000146, 70.87055250000049, 71.73452770000222, 71.85499390000041]",1,6,# # # # # #,None,68.71857610000006,69.22258100000181,70.58253310000146,70.87055250000049,71.73452770000222,71.85499390000041,2.5715882000004058,0.5040049000017461,1.3599520999996457,0.2880193999990297,0.8639752000017324,0.12046619999819086
28,12,0.0,3,False,0.0,None,right,False,2,1,0,enc,0,0,0,[],[],1,6,2 3 4 2 2 1,6,0.0,0.0,0.0,0.0,0.0,0.0,0,0.0,0.0,0.0,0.0,0.0
29,13,4.8880688,3,True,0.5,acc,right,False,2,1,6,ret,1,10,0,"['1', '2', '2', '4', '3', '2']","[78.8704510000025, 79.20657180000126, 79.38259470000048, 83.4306390999991, 83.59862950000024, 83.75851980000152]",1,6,# # # # # #,None,78.8704510000025,79.20657180000126,79.38259470000048,83.4306390999991,83.59862950000024,83.75851980000152,0.5154571000020951,0.3361207999987528,0.17602289999922505,4.048044399998616,0.16799040000114474,0.15989030000127968
30,14,0.0,2,False,0.0,None,right,False,2,1,0,enc,0,0,1,[],[],1,6,4 2 3 4 2 1,4,0.0,0.0,0.0,0.0,0.0,0.0,0,0.0,0.0,0.0,0.0,0.0
31,15,2.9118728,2,True,0.5,acc,right,True,2,1,4,ret,1,4,1,"['4', '3', '3', '2', '2', '1']","[92.83863220000057, 93.17448620000141, 94.94246080000084, 95.11858030000076, 95.6304678000015, 95.75050499999998]",1,6,# # # # # #,None,92.83863220000057,93.17448620000141,94.94246080000084,95.11858030000076,95.6304678000015,95.75050499999998,2.5801123999990523,0.3358540000008361,1.7679745999994338,0.1761194999999134,0.5118875000007392,0.12003719999847817
32,16,0.0,2,False,0.0,None,right,False,2,1,0,enc,0,0,1,[],[],1,6,1 4 1 3 2 4,4,0.0,0.0,0.0,0.0,0.0,0.0,0,0.0,0.0,0.0,0.0,0.0
33,17,1.5839404,2,True,0.5,acc,right,False,2,1,6,ret,1,10,1,"['1', '4', '1', '3', '2', '4']","[104.95059860000038, 105.29457200000252, 105.66248529999939, 105.92660719999913, 106.31047890000264, 106.53453900000022]",1,6,# # # # # #,None,104.95059860000038,105.29457200000252,105.66248529999939,105.92660719999913,106.31047890000264,106.53453900000022,2.7000936000004003,0.3439734000021417,0.3679132999968715,0.26412189999973634,0.38387170000351034,0.2240600999975868
34,18,0.0,3,False,0.0,None,right,False,2,1,0,enc,0,0,0,[],[],1,6,2 3 3 3 3 4,6,0.0,0.0,0.0,0.0,0.0,0.0,0,0.0,0.0,0.0,0.0,0.0
35,19,2.5277379,3,True,0.5,acc,right,False,2,1,6,ret,1,10,0,"['4', '3', '3', '3', '3', '2']","[113.19877009999982, 113.43068630000198, 113.59049850000156, 115.37452320000011, 115.51856620000035, 115.72650799999974]",1,6,# # # # # #,None,113.19877009999982,113.43068630000198,113.59049850000156,115.37452320000011,115.51856620000035,115.72650799999974,0.16423109999959706,0.23191620000216062,0.1598121999995783,1.7840246999985538,0.14404300000023795,0.20794179999938933
36,20,0.0,3,False,0.0,None,right,False,2,1,0,enc,0,0,1,[],[],1,6,1 1 3 2 2 4,6,0.0,0.0,0.0,0.0,0.0,0.0,0,0.0,0.0,0.0,0.0,0.0
37,21,4.1440734,3,True,0.5,acc,right,True,2,1,4,ret,1,4,1,"['1', '3', '2', '2', '2', '4']","[122.34245390000069, 122.70249360000162, 124.23849150000024, 125.27047750000202, 125.71045109999977, 126.48652729999958]",1,6,# # # # # #,None,122.34245390000069,122.70249360000162,124.23849150000024,125.27047750000202,125.71045109999977,126.48652729999958,0.11594590000095195,0.3600397000009252,1.5359978999986197,1.0319860000017798,0.43997359999775654,0.7760761999998067
38,22,0.0,2,False,0.0,None,right,False,2,1,0,enc,0,0,0,[],[],1,6,4 1 1 1 4 4,4,0.0,0.0,0.0,0.0,0.0,0.0,0,0.0,0.0,0.0,0.0,0.0
39,23,4.399944,2,True,0.5,acc,right,False,2,1,6,ret,1,10,0,"['4', '4', '1', '1', '1', '4']","[135.32652529999905, 135.49449800000002, 137.3664573999995, 137.53446260000055, 139.32645870000124, 139.72646929999974]",1,6,# # # # # #,None,135.32652529999905,135.49449800000002,137.3664573999995,137.53446260000055,139.32645870000124,139.72646929999974,2.3399979999994684,0.16797270000097342,1.8719593999994686,0.1680052000010619,1.7919961000006879,0.4000105999984953
40,0,0.0,3,False,0.0,None,right,False,2,1,0,enc,0,0,1,[],[],2,6,3 2 2 3 2 3,6,0.0,0.0,0.0,0.0,0.0,0.0,0,0.0,0.0,0.0,0.0,0.0
41,1,1.4804184,3,True,0.5,acc,right,True,2,1,3,ret,1,3,1,"['3', '2', '2', '2', '3', '2']","[5.156244700003299, 5.476381400003447, 5.652304700000968, 6.364263600000413, 6.508917400002247, 6.636663100001897]",2,6,# # # # # #,None,5.156244700003299,5.476381400003447,5.652304700000968,6.364263600000413,6.508917400002247,6.636663100001897,NaN,0.32013670000014827,0.1759232999975211,0.7119588999994448,0.1446538000018336,0.12774569999965024
42,2,0.0,2,False,0.0,None,right,False,2,1,0,enc,0,0,1,[],[],2,6,2 4 4 4 4 1,4,0.0,0.0,0.0,0.0,0.0,0.0,0,0.0,0.0,0.0,0.0,0.0
43,3,2.0885985,2,True,0.5,acc,right,True,2,1,5,ret,1,5,1,"['2', '4', '4', '4', '2', '1']","[17.01218620000145, 17.2683958000016, 18.180131100001745, 18.33226460000151, 18.99624020000192, 19.100784700000077]",2,6,# # # # # #,None,17.01218620000145,17.2683958000016,18.180131100001745,18.33226460000151,18.99624020000192,19.100784700000077,3.8755230999995547,0.2562096000001475,0.9117353000001458,0.15213349999976344,0.6639756000004127,0.10454449999815552
44,4,0.0,3,False,0.0,None,right,False,2,1,0,enc,0,0,1,[],[],2,6,1 4 1 4 4 3,6,0.0,0.0,0.0,0.0,0.0,0.0,0,0.0,0.0,0.0,0.0,0.0
45,5,2.2401261,3,True,0.5,acc,right,False,2,1,6,ret,1,10,1,"['1', '4', '1', '4', '4', '3']","[25.996110000000044, 26.28410680000161, 26.59627250000267, 27.948103000002448, 28.08418050000182, 28.236236100001406]",2,6,# # # # # #,None,25.996110000000044,26.28410680000161,26.59627250000267,27.948103000002448,28.08418050000182,28.236236100001406,0.3953252999999677,0.28799680000156513,0.31216570000106003,1.3518304999997781,0.13607749999937369,0.15205559999958496
46,6,0.0,3,False,0.0,None,right,False,2,1,0,enc,0,0,0,[],[],2,6,1 3 1 3 1 3,6,0.0,0.0,0.0,0.0,0.0,0.0,0,0.0,0.0,0.0,0.0,0.0
47,7,3.0328745,3,True,0.5,acc,right,False,2,1,6,ret,1,10,0,"['3', '1', '3', '1', '3', '1']","[35.100122400002874, 35.91625910000221, 36.28408180000042, 37.82822330000272, 38.02024600000004, 38.13299690000349]",2,6,# # # # # #,None,35.100122400002874,35.91625910000221,36.28408180000042,37.82822330000272,38.02024600000004,38.13299690000349,0.36388630000146804,0.8161366999993334,0.3678226999982144,1.544141500002297,0.1920226999973238,0.1127509000034479
48,8,0.0,2,False,0.0,None,right,False,2,1,0,enc,0,0,0,[],[],2,6,2 1 4 4 4 2,4,0.0,0.0,0.0,0.0,0.0,0.0,0,0.0,0.0,0.0,0.0,0.0
49,9,4.1363515,2,True,0.5,acc,right,False,2,1,6,ret,1,10,0,"['2', '4', '4', '4', '1', '2']","[48.02021860000241, 48.2921752000002, 49.324186400001054, 49.468316100002994, 52.05216040000232, 52.15657009999995]",2,6,# # # # # #,None,48.02021860000241,48.2921752000002,49.324186400001054,49.468316100002994,52.05216040000232,52.15657009999995,3.3872216999989178,0.2719565999977931,1.0320112000008521,0.14412970000194036,2.5838442999993276,0.10440969999763183
50,10,0.0,3,False,0.0,None,right,False,2,1,0,enc,0,0,0,[],[],2,6,3 3 4 1 2 3,6,0.0,0.0,0.0,0.0,0.0,0.0,0,0.0,0.0,0.0,0.0,0.0
51,11,2.7199069,3,True,0.5,acc,right,False,2,1,6,ret,1,10,0,"['3', '2', '1', '4', '3', '3']","[59.30022950000057, 59.452712400001474, 59.66025560000344, 61.65216400000281, 61.83635520000098, 62.02013640000223]",2,6,# # # # # #,None,59.30022950000057,59.452712400001474,59.66025560000344,61.65216400000281,61.83635520000098,62.02013640000223,0.6436594000006153,0.15248290000090492,0.20754320000196458,1.9919083999993745,0.18419119999816758,0.1837812000012491
52,12,0.0,2,False,0.0,None,right,False,2,1,0,enc,0,0,0,[],[],2,6,4 2 2 2 3 1,4,0.0,0.0,0.0,0.0,0.0,0.0,0,0.0,0.0,0.0,0.0,0.0
53,13,4.8162322,2,True,0.5,acc,right,False,2,1,6,ret,1,10,0,"['1', '3', '2', '2', '2', '4']","[71.29210010000315, 71.3961229000015, 73.78825980000329, 73.96415340000021, 76.01214100000288, 76.10833230000208]",2,6,# # # # # #,None,71.29210010000315,71.3961229000015,73.78825980000329,73.96415340000021,76.01214100000288,76.10833230000208,2.7719637000009243,0.10402279999834718,2.3921369000017876,0.17589359999692533,2.0479876000026707,0.09619129999919096
54,14,0.0,3,False,0.0,None,right,False,2,1,0,enc,0,0,1,[],[],2,6,3 2 2 1 1 4,6,0.0,0.0,0.0,0.0,0.0,0.0,0,0.0,0.0,0.0,0.0,0.0
55,15,1.9841918,3,True,0.5,acc,right,False,2,1,6,ret,1,10,1,"['3', '2', '2', '1', '1', '4']","[83.64412840000296, 83.81204670000079, 83.97213140000167, 85.28422510000019, 85.49208830000134, 85.62832020000133]",2,6,# # # # # #,None,83.64412840000296,83.81204670000079,83.97213140000167,85.28422510000019,85.49208830000134,85.62832020000133,1.03579610000088,0.16791829999783658,0.16008470000087982,1.3120936999985133,0.20786320000115666,0.1362318999999843
56,16,0.0,2,False,0.0,None,right,False,2,1,0,enc,0,0,0,[],[],2,6,4 3 2 1 2 2,4,0.0,0.0,0.0,0.0,0.0,0.0,0,0.0,0.0,0.0,0.0,0.0
57,17,1.5840876,2,True,0.5,acc,right,True,2,1,2,ret,1,2,0,"['2', '2', '4', '3', '2', '1']","[94.02808850000292, 94.15612040000269, 94.50809980000122, 94.63600370000131, 94.79676010000185, 95.61217610000313]",2,6,# # # # # #,None,94.02808850000292,94.15612040000269,94.50809980000122,94.63600370000131,94.79676010000185,95.61217610000313,1.8997683000015968,0.12803189999976894,0.3519793999985268,0.1279039000000921,0.16075640000053681,0.815416000001278
58,18,0.0,2,False,0.0,None,right,False,2,1,0,enc,0,0,1,[],[],2,6,3 1 4 4 2 3,4,0.0,0.0,0.0,0.0,0.0,0.0,0,0.0,0.0,0.0,0.0,0.0
59,19,1.3044307,2,True,0.5,acc,right,True,2,1,5,ret,1,5,1,"['3', '1', '4', '4', '2', '1']","[104.84430180000345, 105.02808810000352, 105.5800838000032, 105.70804530000169, 106.04423620000307, 106.14873250000164]",2,6,# # # # # #,None,104.84430180000345,105.02808810000352,105.5800838000032,105.70804530000169,106.04423620000307,106.14873250000164,2.7321257000003243,0.18378630000006524,0.5519956999996793,0.1279614999984915,0.33619090000138385,0.1044962999985728
60,20,0.0,3,False,0.0,None,right,False,2,1,0,enc,0,0,0,[],[],2,6,1 1 4 4 3 2,6,0.0,0.0,0.0,0.0,0.0,0.0,0,0.0,0.0,0.0,0.0,0.0
61,21,2.848032,3,True,0.5,acc,right,False,2,1,6,ret,1,10,0,"['2', '3', '4', '4', '1', '1']","[115.67612780000127, 115.79611040000236, 115.95608400000128, 118.18830510000043, 118.34854310000082, 118.52415980000296]",2,6,# # # # # #,None,115.67612780000127,115.79611040000236,115.95608400000128,118.18830510000043,118.34854310000082,118.52415980000296,3.0273952999996254,0.1199826000010944,0.1599735999989207,2.232221099999151,0.16023800000039046,0.1756167000021378
62,22,0.0,2,False,0.0,None,right,False,2,1,0,enc,0,0,1,[],[],2,6,4 2 1 2 4 1,4,0.0,0.0,0.0,0.0,0.0,0.0,0,0.0,0.0,0.0,0.0,0.0
63,23,2.9759044,2,True,0.5,acc,right,False,2,1,6,ret,1,10,1,"['4', '2', '1', '2', '4', '1']","[127.38008740000078, 127.73207420000108, 129.29202890000306, 129.37206690000312, 130.18006040000182, 130.3559918000028]",2,6,# # # # # #,None,127.38008740000078,127.73207420000108,129.29202890000306,129.37206690000312,130.18006040000182,130.3559918000028,2.3559275999978126,0.35198680000030436,1.559954700001981,0.08003800000005867,0.8079934999987017,0.17593140000099083
64,0,0.0,2,False,0.0,None,right,False,2,1,0,enc,0,0,1,[],[],3,6,1 3 3 1 2 3,4,0.0,0.0,0.0,0.0,0.0,0.0,0,0.0,0.0,0.0,0.0,0.0
65,1,1.840407,2,True,0.5,acc,right,False,2,1,6,ret,1,10,1,"['1', '3', '3', '1', '2', '3']","[7.392208299999766, 7.704429399997025, 8.352782999998453, 8.70432499999879, 9.064219799998682, 9.232615299999452]",3,6,# # # # # #,None,7.392208299999766,7.704429399997025,8.352782999998453,8.70432499999879,9.064219799998682,9.232615299999452,NaN,0.31222109999725944,0.6483536000014283,0.351542000000336,0.3598947999998927,0.16839550000076997
66,2,0.0,3,False,0.0,None,right,False,2,1,0,enc,0,0,0,[],[],3,6,2 3 1 2 2 1,6,0.0,0.0,0.0,0.0,0.0,0.0,0,0.0,0.0,0.0,0.0,0.0
67,3,4.8719813,3,True,0.5,acc,right,True,2,1,5,ret,1,5,0,"['1', '2', '2', '1', '3', '1']","[15.928229999997711, 16.208212199999252, 16.36014249999789, 19.976214299997082, 20.47227849999763, 20.800211300000228]",3,6,# # # # # #,None,15.928229999997711,16.208212199999252,16.36014249999789,19.976214299997082,20.47227849999763,20.800211300000228,0.1956146999982593,0.27998220000154106,0.15193029999863938,3.6160717999991903,0.4960642000005464,0.32793280000259983
68,4,0.0,3,False,0.0,None,right,False,2,1,0,enc,0,0,1,[],[],3,6,4 1 3 2 2 1,6,0.0,0.0,0.0,0.0,0.0,0.0,0,0.0,0.0,0.0,0.0,0.0
69,5,1.7520836,3,True,0.5,acc,right,False,2,1,6,ret,1,10,1,"['4', '1', '3', '2', '2', '1']","[27.6561707999972, 28.088204899999255, 28.360153999998147, 29.10418859999845, 29.24009289999958, 29.40825439999753]",3,6,# # # # # #,None,27.6561707999972,28.088204899999255,28.360153999998147,29.10418859999845,29.24009289999958,29.40825439999753,0.3559594999969704,0.4320341000020562,0.27194909999889205,0.7440346000003046,0.13590430000112974,0.16816149999795016
70,6,0.0,2,False,0.0,None,right,False,2,1,0,enc,0,0,0,[],[],3,6,3 4 4 3 4 1,4,0.0,0.0,0.0,0.0,0.0,0.0,0,0.0,0.0,0.0,0.0,0.0
71,7,10.0400429,2,True,0.5,acc,right,True,2,1,4,ret,1,4,0,"['1', '4', '3', '4', '1', '4']","[39.000171699997736, 39.1042938999999, 44.568166299999575, 44.640303199998016, 48.9361594999973, 49.04021459999785]",3,6,# # # # # #,None,39.000171699997736,39.1042938999999,44.568166299999575,44.640303199998016,48.9361594999973,49.04021459999785,3.0919173000002047,0.10412220000216621,5.463872399999673,0.07213689999844064,4.295856299999286,0.10405510000055074
72,8,0.0,3,False,0.0,None,right,False,2,1,0,enc,0,0,1,[],[],3,6,1 2 2 4 4 3,6,0.0,0.0,0.0,0.0,0.0,0.0,0,0.0,0.0,0.0,0.0,0.0
73,9,1.0239679,3,True,0.5,acc,right,False,2,1,6,ret,1,10,1,"['1', '2', '2', '4', '4', '3']","[55.98428029999923, 56.17617869999958, 56.312111999999615, 56.61619249999785, 56.77621829999771, 57.0082481999998]",3,6,# # # # # #,None,55.98428029999923,56.17617869999958,56.312111999999615,56.61619249999785,56.77621829999771,57.0082481999998,0.44406570000137435,0.19189840000035474,0.13593330000003334,0.3040804999982356,0.16002579999985755,0.23202990000208956
74,10,0.0,2,False,0.0,None,right,False,2,1,0,enc,0,0,0,[],[],3,6,4 4 3 2 3 3,4,0.0,0.0,0.0,0.0,0.0,0.0,0,0.0,0.0,0.0,0.0,0.0
75,11,4.6405272,2,True,0.5,acc,right,False,2,1,6,ret,1,10,0,"['3', '3', '2', '3', '4', '4']","[65.80816879999838, 65.94418459999724, 69.19212979999793, 69.28816369999913, 70.32814239999789, 70.44869599999947]",3,6,# # # # # #,None,65.80816879999838,65.94418459999724,69.19212979999793,69.28816369999913,70.32814239999789,70.44869599999947,2.299920599998586,0.1360157999988587,3.247945200000686,0.09603390000120271,1.0399786999987555,0.12055360000158544
76,12,0.0,3,False,0.0,None,right,False,2,1,0,enc,0,0,0,[],[],3,6,2 4 3 2 2 4,6,0.0,0.0,0.0,0.0,0.0,0.0,0,0.0,0.0,0.0,0.0,0.0
77,13,3.1685862,3,True,0.5,acc,right,True,2,1,4,ret,1,4,0,"['4', '2', '2', '4', '3', '2']","[77.50414209999872, 77.76826090000031, 77.94421109999894, 80.360199499999, 80.52012979999927, 80.67272830000002]",3,6,# # # # # #,None,77.50414209999872,77.76826090000031,77.94421109999894,80.360199499999,80.52012979999927,80.67272830000002,0.5554460999992443,0.26411880000159726,0.17595019999862416,2.41598840000006,0.1599303000002692,0.15259850000074948
78,14,0.0,2,False,0.0,None,right,False,2,1,0,enc,0,0,0,[],[],3,6,2 3 4 4 1 2,4,0.0,0.0,0.0,0.0,0.0,0.0,0,0.0,0.0,0.0,0.0,0.0
79,15,5.7119679,2,True,0.5,acc,right,True,2,1,2,ret,1,2,0,"['3', '2', '3', '4', '2', '2']","[90.68015620000006, 90.96009749999939, 94.84004819999973, 95.46412789999886, 96.26418600000034, 96.39212409999891]",3,6,# # # # # #,None,90.68015620000006,90.96009749999939,94.84004819999973,95.46412789999886,96.26418600000034,96.39212409999891,3.507427900000039,0.2799412999993365,3.879950700000336,0.6240796999991289,0.800058100001479,0.1279380999985733
80,16,0.0,3,False,0.0,None,right,False,2,1,0,enc,0,0,1,[],[],3,6,2 1 1 2 4 1,6,0.0,0.0,0.0,0.0,0.0,0.0,0,0.0,0.0,0.0,0.0,0.0
81,17,1.7600319,3,True,0.5,acc,right,False,2,1,6,ret,1,10,1,"['2', '1', '1', '2', '4', '1']","[103.37609379999776, 103.64003729999968, 103.81619819999833, 104.80013619999954, 104.9681187999995, 105.13612569999896]",3,6,# # # # # #,None,103.37609379999776,103.64003729999968,103.81619819999833,104.80013619999954,104.9681187999995,105.13612569999896,0.48396969999885187,0.2639435000019148,0.17616089999864926,0.983938000001217,0.16798259999995935,0.16800689999945462
82,18,0.0,3,False,0.0,None,right,False,2,1,0,enc,0,0,0,[],[],3,6,3 2 1 1 3 2,6,0.0,0.0,0.0,0.0,0.0,0.0,0,0.0,0.0,0.0,0.0,0.0
83,19,3.615987,3,True,0.5,acc,right,False,2,1,6,ret,1,10,0,"['2', '3', '1', '1', '2', '3']","[112.88812569999936, 113.01610299999811, 113.36808929999825, 116.2240755999992, 116.37610849999692, 116.5041127000004]",3,6,# # # # # #,None,112.88812569999936,113.01610299999811,113.36808929999825,116.2240755999992,116.37610849999692,116.5041127000004,1.2520000000004075,0.12797729999874718,0.3519863000001351,2.85598630000095,0.15203289999772096,0.12800420000348822
84,20,0.0,2,False,0.0,None,right,False,2,1,0,enc,0,0,1,[],[],3,6,1 4 1 4 2 1,4,0.0,0.0,0.0,0.0,0.0,0.0,0,0.0,0.0,0.0,0.0,0.0
85,21,1.8245401,2,True,0.5,acc,right,False,2,1,6,ret,1,10,1,"['1', '4', '1', '4', '2', '1']","[125.00813269999708, 125.68810680000024, 126.06410699999833, 126.40809119999903, 126.72008669999923, 126.83267279999927]",3,6,# # # # # #,None,125.00813269999708,125.68810680000024,126.06410699999833,126.40809119999903,126.72008669999923,126.83267279999927,2.0040199999966717,0.6799741000031645,0.37600019999808865,0.34398420000070473,0.3119955000001937,0.1125861000000441
86,22,0.0,2,False,0.0,None,right,False,2,1,0,enc,0,0,1,[],[],3,6,1 3 2 1 1 3,4,0.0,0.0,0.0,0.0,0.0,0.0,0,0.0,0.0,0.0,0.0,0.0
87,23,1.1280089,2,True,0.5,acc,right,False,2,1,6,ret,1,10,1,"['1', '3', '2', '1', '1', '3']","[135.53613479999694, 135.76806749999741, 136.06405470000027, 136.2001046000005, 136.5121048999972, 136.66414369999984]",3,6,# # # # # #,None,135.53613479999694,135.76806749999741,136.06405470000027,136.2001046000005,136.5121048999972,136.66414369999984,2.2034619999976712,0.2319327000004705,0.2959872000028554,0.13604990000021644,0.3120002999967255,0.1520388000026287
88,0,0.0,2,False,0.0,None,right,False,2,1,0,enc,0,0,1,[],[],4,6,4 4 1 3 2 2,4,0.0,0.0,0.0,0.0,0.0,0.0,0,0.0,0.0,0.0,0.0,0.0
89,1,1.2559809,2,True,0.5,acc,right,False,2,1,6,ret,1,10,1,"['4', '4', '1', '3', '2', '2']","[7.110188399998151, 7.238199299998087, 7.750127399998746, 7.9342669999969075, 8.238250899998093, 8.366169299999456]",4,6,# # # # # #,None,7.110188399998151,7.238199299998087,7.750127399998746,7.9342669999969075,8.238250899998093,8.366169299999456,NaN,0.12801089999993565,0.5119281000006595,0.18413959999816143,0.30398390000118525,0.1279184000013629
90,2,0.0,2,False,0.0,None,right,False,2,1,0,enc,0,0,0,[],[],4,6,3 2 1 3 4 3,4,0.0,0.0,0.0,0.0,0.0,0.0,0,0.0,0.0,0.0,0.0,0.0
91,3,5.5359966,2,True,0.5,acc,right,False,2,1,6,ret,1,10,0,"['3', '4', '3', '1', '2', '3']","[17.66210130000036, 17.79819089999728, 20.366600599998492, 20.662106799998583, 23.110202599997137, 23.198097899999993]",4,6,# # # # # #,None,17.66210130000036,17.79819089999728,20.366600599998492,20.662106799998583,23.110202599997137,23.198097899999993,2.795932000000903,0.1360895999969216,2.5684097000012116,0.29550620000009076,2.448095799998555,0.08789530000285595
92,4,0.0,3,False,0.0,None,right,False,2,1,0,enc,0,0,0,[],[],4,6,2 3 2 3 1 2,6,0.0,0.0,0.0,0.0,0.0,0.0,0,0.0,0.0,0.0,0.0,0.0
93,5,3.3362753,3,True,0.5,acc,right,False,2,1,6,ret,1,10,0,"['2', '1', '3', '2', '3', '2']","[32.41422439999951, 32.58206919999793, 32.7345073999968, 35.518157299997256, 35.62214349999704, 35.75049969999964]",4,6,# # # # # #,None,32.41422439999951,32.58206919999793,32.7345073999968,35.518157299997256,35.62214349999704,35.75049969999964,2.7161264999995183,0.16784479999842006,0.1524381999988691,2.783649900000455,0.10398619999978109,0.1283562000025995
94,6,0.0,3,False,0.0,None,right,False,2,1,0,enc,0,0,1,[],[],4,6,4 4 4 2 2 1,6,0.0,0.0,0.0,0.0,0.0,0.0,0,0.0,0.0,0.0,0.0,0.0
95,7,3.2481855,3,True,0.5,acc,right,False,2,1,6,ret,1,10,1,"['4', '4', '4', '2', '2', '1']","[42.81391149999763, 42.99816549999741, 43.366218399998615, 45.45414179999716, 45.910092399997666, 46.062096999998175]",4,6,# # # # # #,None,42.81391149999763,42.99816549999741,43.366218399998615,45.45414179999716,45.910092399997666,46.062096999998175,0.5634117999979935,0.18425399999978254,0.36805290000120294,2.0879233999985445,0.4559506000005058,0.15200460000050953
96,8,0.0,2,False,0.0,None,right,False,2,1,0,enc,0,0,1,[],[],4,6,3 1 4 3 4 1,4,0.0,0.0,0.0,0.0,0.0,0.0,0,0.0,0.0,0.0,0.0,0.0
97,9,2.9599519,2,True,0.5,acc,right,True,2,1,4,ret,1,4,1,"['3', '1', '4', '3', '2', '3']","[55.36608259999775, 55.92605689999982, 57.27022279999801, 57.45403809999698, 58.27007169999706, 58.32603449999806]",4,6,# # # # # #,None,55.36608259999775,55.92605689999982,57.27022279999801,57.45403809999698,58.27007169999706,58.32603449999806,2.803985599999578,0.559974300002068,1.3441658999981883,0.18381529999896884,0.8160336000000825,0.05596280000099796
98,10,0.0,3,False,0.0,None,right,False,2,1,0,enc,0,0,1,[],[],4,6,3 1 4 2 4 3,6,0.0,0.0,0.0,0.0,0.0,0.0,0,0.0,0.0,0.0,0.0,0.0
99,11,2.3677881,3,True,0.5,acc,right,True,2,1,4,ret,1,4,1,"['3', '1', '4', '2', '3', '4']","[65.86225980000017, 66.08604869999908, 66.66997649999757, 67.89413309999873, 68.03004750000036, 68.23004789999686]",4,6,# # # # # #,None,65.86225980000017,66.08604869999908,66.66997649999757,67.89413309999873,68.03004750000036,68.23004789999686,1.0362253000021155,0.22378889999890816,0.5839277999984915,1.2241566000011517,0.13591440000163857,0.20000039999649744
100,12,0.0,2,False,0.0,None,right,False,2,1,0,enc,0,0,0,[],[],4,6,2 1 4 1 4 4,4,0.0,0.0,0.0,0.0,0.0,0.0,0,0.0,0.0,0.0,0.0,0.0
101,13,5.5998234,2,True,0.5,acc,right,False,2,1,6,ret,1,10,0,"['4', '4', '1', '4', '1', '2']","[77.62220239999806, 77.79802589999963, 79.91805359999853, 80.41407619999882, 83.10196569999971, 83.22202579999794]",4,6,# # # # # #,None,77.62220239999806,77.79802589999963,79.91805359999853,80.41407619999882,83.10196569999971,83.22202579999794,2.8921545000011974,0.1758235000015702,2.1200276999989,0.49602260000028764,2.6878895000008924,0.12006009999822709
102,14,0.0,3,False,0.0,None,right,False,2,1,0,enc,0,0,0,[],[],4,6,4 4 4 2 2 3,6,0.0,0.0,0.0,0.0,0.0,0.0,0,0.0,0.0,0.0,0.0,0.0
103,15,2.2801212,3,True,0.5,acc,right,False,2,1,6,ret,1,10,0,"['3', '2', '2', '4', '4', '4']","[90.67001739999978, 91.76601559999835, 91.885984499997, 92.67005499999868, 92.8141633999985, 92.95013859999744]",4,6,# # # # # #,None,90.67001739999978,91.76601559999835,91.885984499997,92.67005499999868,92.8141633999985,92.95013859999744,0.947991600001842,1.0959981999985757,0.11996889999863924,0.7840705000016897,0.14410839999982272,0.13597519999893848
104,16,0.0,2,False,0.0,None,right,False,2,1,0,enc,0,0,1,[],[],4,6,4 2 3 2 4 3,4,0.0,0.0,0.0,0.0,0.0,0.0,0,0.0,0.0,0.0,0.0,0.0
105,17,2.4799811,2,True,0.5,acc,right,False,2,1,6,ret,1,10,1,"['4', '2', '3', '2', '4', '3']","[101.91806989999895, 102.2140268999974, 102.83023109999704, 103.13411269999779, 104.27001879999807, 104.39805100000012]",4,6,# # # # # #,None,101.91806989999895,102.2140268999974,102.83023109999704,103.13411269999779,104.27001879999807,104.39805100000012,2.46793130000151,0.2959569999984524,0.616204199999629,0.30388160000075004,1.135906100000284,0.1280322000020533
106,18,0.0,2,False,0.0,None,right,False,2,1,0,enc,0,0,0,[],[],4,6,4 4 2 3 3 4,4,0.0,0.0,0.0,0.0,0.0,0.0,0,0.0,0.0,0.0,0.0,0.0
107,19,4.8639404,2,True,0.5,acc,right,False,2,1,6,ret,1,10,0,"['4', '3', '3', '2', '4', '4']","[113.66207219999706, 113.82252139999764, 117.03813059999811, 117.27799479999885, 118.38207589999729, 118.52601259999938]",4,6,# # # # # #,None,113.66207219999706,113.82252139999764,117.03813059999811,117.27799479999885,118.38207589999729,118.52601259999938,2.7640211999969324,0.16044920000058482,3.215609200000472,0.2398642000007385,1.1040810999984387,0.14393670000208658
108,20,0.0,3,False,0.0,None,right,False,2,1,0,enc,0,0,1,[],[],4,6,3 3 3 1 1 2,6,0.0,0.0,0.0,0.0,0.0,0.0,0,0.0,0.0,0.0,0.0,0.0
109,21,1.5999525,3,True,0.5,acc,right,False,2,1,6,ret,1,10,1,"['3', '3', '3', '1', '1', '2']","[125.18204289999994, 125.43007509999734, 125.71902549999868, 126.42271499999697, 126.60605639999994, 126.78199539999696]",4,6,# # # # # #,None,125.18204289999994,125.43007509999734,125.71902549999868,126.42271499999697,126.60605639999994,126.78199539999696,0.15603030000056606,0.24803219999739667,0.2889504000013403,0.7036894999982906,0.1833414000029734,0.17593899999701534
110,22,0.0,3,False,0.0,None,right,False,2,1,0,enc,0,0,0,[],[],4,6,1 4 3 2 2 1,6,0.0,0.0,0.0,0.0,0.0,0.0,0,0.0,0.0,0.0,0.0,0.0
111,23,4.9997269,3,True,0.5,acc,right,False,2,1,6,ret,1,10,0,"['1', '2', '2', '3', '4', '1']","[133.73412769999777, 134.06193480000002, 134.2300381999994, 137.9739527999991, 138.18996719999996, 138.73385459999918]",4,6,# # # # # #,None,133.73412769999777,134.06193480000002,134.2300381999994,137.9739527999991,138.18996719999996,138.73385459999918,0.4521323000008124,0.32780710000224644,0.1681033999993815,3.743914599999698,0.2160144000008586,0.5438873999992211
112,0,0.0,3,False,0.0,None,right,False,2,1,0,enc,0,0,1,[],[],5,6,4 3 1 1 1 1,6,0.0,0.0,0.0,0.0,0.0,0.0,0,0.0,0.0,0.0,0.0,0.0
113,1,1.9918909,3,True,0.5,acc,right,True,2,1,5,ret,1,5,1,"['4', '3', '2', '1', '1', '1']","[5.558663399999205, 5.814612199999829, 6.166587799998524, 7.206570499998634, 7.390615600001183, 7.550554299999931]",5,6,# # # # # #,None,5.558663399999205,5.814612199999829,6.166587799998524,7.206570499998634,7.390615600001183,7.550554299999931,NaN,0.25594880000062403,0.35197559999869554,1.0399827000001096,0.1840451000025496,0.15993869999874732
114,2,0.0,3,False,0.0,None,right,False,2,1,0,enc,0,0,1,[],[],5,6,2 4 2 3 2 4,6,0.0,0.0,0.0,0.0,0.0,0.0,0,0.0,0.0,0.0,0.0,0.0
115,3,1.7359827,3,True,0.5,acc,right,True,2,1,4,ret,1,4,1,"['2', '4', '2', '2', '3', '4']","[15.086600599999656, 15.582550600000104, 15.902646300000924, 16.398647199999687, 16.55856760000097, 16.82258329999968]",5,6,# # # # # #,None,15.086600599999656,15.582550600000104,15.902646300000924,16.398647199999687,16.55856760000097,16.82258329999968,1.0360462999997253,0.4959500000004482,0.3200957000008202,0.4960008999987622,0.15992040000128327,0.26401569999870844
116,4,0.0,2,False,0.0,None,right,False,2,1,0,enc,0,0,1,[],[],5,6,4 3 3 2 2 2,4,0.0,0.0,0.0,0.0,0.0,0.0,0,0.0,0.0,0.0,0.0,0.0
117,5,2.0081692,2,True,0.5,acc,right,False,2,1,6,ret,1,10,1,"['4', '3', '3', '2', '2', '2']","[26.230663900001673, 26.550590300001204, 27.334566199999244, 27.598543000000063, 28.07073970000056, 28.238833100000193]",5,6,# # # # # #,None,26.230663900001673,26.550590300001204,27.334566199999244,27.598543000000063,28.07073970000056,28.238833100000193,2.9080806000019948,0.319926399999531,0.7839758999980404,0.2639768000008189,0.4721967000004952,0.16809339999963413
118,6,0.0,2,False,0.0,None,right,False,2,1,0,enc,0,0,1,[],[],5,6,2 3 1 3 2 3,4,0.0,0.0,0.0,0.0,0.0,0.0,0,0.0,0.0,0.0,0.0,0.0
119,7,2.2879636,2,True,0.5,acc,right,False,2,1,6,ret,1,10,1,"['2', '3', '1', '3', '2', '3']","[36.78257129999838, 37.14240670000072, 37.82260120000137, 38.35858329999974, 38.8546634000013, 39.0705349000018]",5,6,# # # # # #,None,36.78257129999838,37.14240670000072,37.82260120000137,38.35858329999974,38.8546634000013,39.0705349000018,2.043738199998188,0.35983540000233916,0.6801945000006526,0.535982099998364,0.49608010000156355,0.21587150000050315
120,8,0.0,2,False,0.0,None,right,False,2,1,0,enc,0,0,0,[],[],5,6,3 2 3 1 3 4,4,0.0,0.0,0.0,0.0,0.0,0.0,0,0.0,0.0,0.0,0.0,0.0
121,9,6.2164511,2,True,0.5,acc,right,False,2,1,6,ret,1,10,0,"['4', '3', '1', '3', '2', '3']","[48.942545599998994, 49.31854200000089, 53.05458050000016, 53.31140779999987, 54.9025189999993, 55.15899669999999]",5,6,# # # # # #,None,48.942545599998994,49.31854200000089,53.05458050000016,53.31140779999987,54.9025189999993,55.15899669999999,3.3720106999971904,0.3759964000018954,3.7360384999992675,0.25682729999971343,1.5911111999994318,0.25647770000068704
122,10,0.0,3,False,0.0,None,right,False,2,1,0,enc,0,0,0,[],[],5,6,1 3 1 4 1 1,6,0.0,0.0,0.0,0.0,0.0,0.0,0,0.0,0.0,0.0,0.0,0.0
123,11,4.7999813,3,True,0.5,acc,right,False,2,1,6,ret,1,10,0,"['1', '1', '4', '1', '3', '1']","[62.74263670000073, 62.99939810000069, 63.830510499999946, 67.08648430000176, 67.35060050000175, 67.5426179999995]",5,6,# # # # # #,None,62.74263670000073,62.99939810000069,63.830510499999946,67.08648430000176,67.35060050000175,67.5426179999995,1.0836400000007416,0.2567613999999594,0.831112399999256,3.2559738000018115,0.2641161999999895,0.1920174999977462
124,12,0.0,3,False,0.0,None,right,False,2,1,0,enc,0,0,0,[],[],5,6,3 3 4 4 1 1,6,0.0,0.0,0.0,0.0,0.0,0.0,0,0.0,0.0,0.0,0.0,0.0
125,13,5.4399734,3,True,0.5,acc,right,True,2,1,4,ret,1,4,0,"['1', '1', '4', '1', '1', '3']","[74.8545411999985, 75.06253419999848, 76.38250640000115, 79.76652390000163, 79.99059860000125, 80.29451459999837]",5,6,# # # # # #,None,74.8545411999985,75.06253419999848,76.38250640000115,79.76652390000163,79.99059860000125,80.29451459999837,0.8119231999990006,0.20799299999998766,1.3199722000026668,3.384017500000482,0.22407469999961904,0.30391599999711616
126,14,0.0,2,False,0.0,None,right,False,2,1,0,enc,0,0,0,[],[],5,6,1 4 1 2 4 4,4,0.0,0.0,0.0,0.0,0.0,0.0,0,0.0,0.0,0.0,0.0,0.0
127,15,4.4558744,2,True,0.5,acc,right,False,2,1,6,ret,1,10,0,"['4', '4', '2', '1', '4', '1']","[89.67874160000065, 89.96650610000142, 92.17448340000192, 92.45447689999855, 93.89444690000164, 94.13461599999937]",5,6,# # # # # #,None,89.67874160000065,89.96650610000142,92.17448340000192,92.45447689999855,93.89444690000164,94.13461599999937,2.8842270000022836,0.287764500000776,2.2079773000004934,0.27999349999663536,1.4399700000030862,0.24016909999772906
128,16,0.0,2,False,0.0,None,right,False,2,1,0,enc,0,0,1,[],[],5,6,1 2 2 1 4 2,4,0.0,0.0,0.0,0.0,0.0,0.0,0,0.0,0.0,0.0,0.0,0.0
129,17,2.9119731,2,True,0.5,acc,right,False,2,1,6,ret,1,10,1,"['1', '2', '2', '1', '4', '2']","[102.73447859999942, 103.09460450000188, 103.66246559999854, 103.95052840000062, 105.3425602999996, 105.64645169999858]",5,6,# # # # # #,None,102.73447859999942,103.09460450000188,103.66246559999854,103.95052840000062,105.3425602999996,105.64645169999858,2.0998626000000513,0.36012590000245837,0.5678610999966622,0.2880628000020806,1.3920318999989831,0.3038913999989745
130,18,0.0,3,False,0.0,None,right,False,2,1,0,enc,0,0,1,[],[],5,6,2 2 1 3 1 3,6,0.0,0.0,0.0,0.0,0.0,0.0,0,0.0,0.0,0.0,0.0,0.0
131,19,3.2239479,3,True,0.5,acc,right,False,2,1,6,ret,1,10,1,"['2', '2', '1', '3', '1', '3']","[112.39856470000086, 112.63043990000006, 112.98250149999876, 114.34247920000053, 114.57449329999872, 115.62251259999903]",5,6,# # # # # #,None,112.39856470000086,112.63043990000006,112.98250149999876,114.34247920000053,114.57449329999872,115.62251259999903,0.2521130000022822,0.2318751999991946,0.3520615999987058,1.3599777000017639,0.2320140999981959,1.0480193000003055
132,20,0.0,2,False,0.0,None,right,False,2,1,0,enc,0,0,0,[],[],5,6,3 4 2 3 1 4,4,0.0,0.0,0.0,0.0,0.0,0.0,0,0.0,0.0,0.0,0.0,0.0
133,21,5.8721584,2,True,0.5,acc,right,True,2,1,2,ret,1,2,0,"['3', '1', '3', '4', '2', '1']","[125.40662130000055, 125.83045720000155, 128.48650690000068, 129.02240729999903, 131.1344977000008, 131.2787797000019]",5,6,# # # # # #,None,125.40662130000055,125.83045720000155,128.48650690000068,129.02240729999903,131.1344977000008,131.2787797000019,3.284108700001525,0.423835900000995,2.65604969999913,0.5359003999983543,2.1120904000017617,0.14428200000111246
134,22,0.0,3,False,0.0,None,right,False,2,1,0,enc,0,0,0,[],[],5,6,2 3 3 3 4 2,6,0.0,0.0,0.0,0.0,0.0,0.0,0,0.0,0.0,0.0,0.0,0.0
135,23,6.6549753,3,True,0.5,acc,right,False,2,1,6,ret,1,10,0,"['2', '4', '3', '3', '3', '2']","[142.14336000000185, 144.8544726, 145.29452749999837, 147.9504335999991, 148.44637199999852, 148.79833530000178]",5,6,# # # # # #,None,142.14336000000185,144.8544726,145.29452749999837,147.9504335999991,148.44637199999852,148.79833530000178,4.364580299999943,2.7111125999981596,0.44005489999835845,2.6559061000007205,0.49593839999943157,0.3519633000032627
136,0,0.0,2,False,0.0,None,right,False,2,1,0,enc,0,0,1,[],[],6,6,2 3 1 1 2 3,4,0.0,0.0,0.0,0.0,0.0,0.0,0,0.0,0.0,0.0,0.0,0.0
137,1,1.2642533,2,True,0.5,acc,right,False,2,1,6,ret,1,10,1,"['2', '3', '1', '1', '2', '3']","[6.927062800001295, 7.063197300001775, 7.48711860000185, 7.623012000000017, 8.055126600000222, 8.191316100001131]",6,6,# # # # # #,None,6.927062800001295,7.063197300001775,7.48711860000185,7.623012000000017,8.055126600000222,8.191316100001131,NaN,0.13613450000048033,0.42392130000007455,0.1358933999981673,0.4321146000002045,0.1361895000009099
138,2,0.0,3,False,0.0,None,right,False,2,1,0,enc,0,0,1,[],[],6,6,2 3 3 4 2 2,6,0.0,0.0,0.0,0.0,0.0,0.0,0,0.0,0.0,0.0,0.0,0.0
139,3,1.6467445,3,True,0.5,acc,right,False,2,1,6,ret,1,10,1,"['2', '3', '3', '4', '2', '2']","[15.008470400000078, 15.335018000001583, 15.510959800001729, 16.15903210000033, 16.42331650000051, 16.655214900001738]",6,6,# # # # # #,None,15.008470400000078,15.335018000001583,15.510959800001729,16.15903210000033,16.42331650000051,16.655214900001738,0.31715429999894695,0.3265476000015042,0.17594180000014603,0.6480722999986028,0.2642844000001787,0.23189840000122786
140,4,0.0,2,False,0.0,None,right,False,2,1,0,enc,0,0,0,[],[],6,6,3 1 2 4 4 4,4,0.0,0.0,0.0,0.0,0.0,0.0,0,0.0,0.0,0.0,0.0,0.0
141,5,6.4882177,2,True,0.5,acc,right,True,2,1,4,ret,1,4,0,"['4', '4', '4', '2', '3', '1']","[25.150982099999965, 25.431136700000934, 29.247029400001338, 29.535300100000313, 31.462951200002863, 31.639199799999915]",6,6,# # # # # #,None,25.150982099999965,25.431136700000934,29.247029400001338,29.535300100000313,31.462951200002863,31.639199799999915,1.9957671999982267,0.28015460000096937,3.815892700000404,0.28827069999897503,1.9276511000025494,0.17624859999705222
142,6,0.0,3,False,0.0,None,right,False,2,1,0,enc,0,0,1,[],[],6,6,3 3 1 3 2 2,6,0.0,0.0,0.0,0.0,0.0,0.0,0,0.0,0.0,0.0,0.0,0.0
143,7,3.4877578,3,True,0.5,acc,right,False,2,1,6,ret,1,10,1,"['3', '3', '1', '3', '2', '2']","[39.287269399999786, 40.63910329999999, 41.03922160000002, 42.39100950000284, 42.61496910000278, 42.775027200001205]",6,6,# # # # # #,None,39.287269399999786,40.63910329999999,41.03922160000002,42.39100950000284,42.61496910000278,42.775027200001205,1.1480695999998716,1.3518339000002015,0.400118300000031,1.3517879000028188,0.22395959999994375,0.16005809999842313
144,8,0.0,2,False,0.0,None,right,False,2,1,0,enc,0,0,1,[],[],6,6,1 2 2 2 4 1,4,0.0,0.0,0.0,0.0,0.0,0.0,0,0.0,0.0,0.0,0.0,0.0
145,9,2.9681243,2,True,0.5,acc,right,False,2,1,6,ret,1,10,1,"['1', '2', '2', '2', '4', '1']","[51.70355019999988, 52.047386400001415, 53.391279600000416, 53.61509289999958, 54.56703300000299, 54.671674500001245]",6,6,# # # # # #,None,51.70355019999988,52.047386400001415,53.391279600000416,53.61509289999958,54.56703300000299,54.671674500001245,2.428522999998677,0.34383620000153314,1.3438931999990018,0.22381329999916488,0.9519401000034122,0.10464149999825167
146,10,0.0,3,False,0.0,None,right,False,2,1,0,enc,0,0,1,[],[],6,6,3 1 4 4 2 4,6,0.0,0.0,0.0,0.0,0.0,0.0,0,0.0,0.0,0.0,0.0,0.0
147,11,2.0640033,3,True,0.5,acc,right,False,2,1,6,ret,1,10,1,"['3', '1', '4', '4', '2', '4']","[61.55094610000015, 61.767018200000166, 62.06297260000065, 63.14307870000266, 63.45492990000275, 63.61494940000193]",6,6,# # # # # #,None,61.55094610000015,61.767018200000166,62.06297260000065,63.14307870000266,63.45492990000275,63.61494940000193,0.37927159999890137,0.21607210000001942,0.29595440000048256,1.0801061000020127,0.3118512000000919,0.16001949999917997
148,12,0.0,3,False,0.0,None,right,False,2,1,0,enc,0,0,0,[],[],6,6,3 4 1 3 4 2,6,0.0,0.0,0.0,0.0,0.0,0.0,0,0.0,0.0,0.0,0.0,0.0
149,13,7.4246026,3,True,0.5,acc,right,True,2,1,5,ret,1,5,0,"['1', '4', '3', '1', '4', '3']","[76.00700030000007, 78.38288580000153, 78.60695690000284, 81.63094140000248, 83.3189549000017, 83.43160290000014]",6,6,# # # # # #,None,76.00700030000007,78.38288580000153,78.60695690000284,81.63094140000248,83.3189549000017,83.43160290000014,5.892050899998139,2.375885500001459,0.2240711000013107,3.023984499999642,1.6880134999992151,0.11264799999844399
150,14,0.0,3,False,0.0,None,right,False,2,1,0,enc,0,0,0,[],[],6,6,1 2 1 3 1 1,6,0.0,0.0,0.0,0.0,0.0,0.0,0,0.0,0.0,0.0,0.0,0.0
151,15,2.0167403,3,True,0.5,acc,right,False,2,1,6,ret,1,10,0,"['1', '1', '3', '1', '2', '1']","[90.27096920000258, 90.46300020000126, 91.07098760000008, 92.05491620000248, 92.16758690000279, 92.28770950000035]",6,6,# # # # # #,None,90.27096920000258,90.46300020000126,91.07098760000008,92.05491620000248,92.16758690000279,92.28770950000035,0.33936630000243895,0.19203099999867845,0.6079873999988195,0.9839286000024003,0.11267070000030799,0.1201225999975577
152,16,0.0,2,False,0.0,None,right,False,2,1,0,enc,0,0,1,[],[],6,6,2 1 4 3 3 2,4,0.0,0.0,0.0,0.0,0.0,0.0,0,0.0,0.0,0.0,0.0,0.0
153,17,2.3522929,2,True,0.5,acc,right,False,2,1,6,ret,1,10,1,"['2', '1', '4', '3', '3', '2']","[100.99897460000284, 101.1118200000019, 102.4873667000029, 102.63150520000272, 103.27106950000234, 103.351267500002]",6,6,# # # # # #,None,100.99897460000284,101.1118200000019,102.4873667000029,102.63150520000272,103.27106950000234,103.351267500002,2.2112651000024925,0.11284539999905974,1.3755467000009958,0.1441384999998263,0.6395642999996198,0.08019799999965471
154,18,0.0,2,False,0.0,None,right,False,2,1,0,enc,0,0,0,[],[],6,6,1 4 4 1 2 3,4,0.0,0.0,0.0,0.0,0.0,0.0,0,0.0,0.0,0.0,0.0,0.0
155,19,4.4718939,2,True,0.5,acc,right,False,2,1,6,ret,1,10,0,"['3', '2', '1', '4', '4', '1']","[112.23914630000218, 112.39904700000261, 115.41496320000078, 115.68704300000172, 116.66289470000265, 116.71104019999984]",6,6,# # # # # #,None,112.23914630000218,112.39904700000261,115.41496320000078,115.68704300000172,116.66289470000265,116.71104019999984,2.3878788000001805,0.15990070000043488,3.0159161999981734,0.2720798000009381,0.9758517000009306,0.0481454999971902
156,20,0.0,2,False,0.0,None,right,False,2,1,0,enc,0,0,0,[],[],6,6,2 1 2 3 4 4,4,0.0,0.0,0.0,0.0,0.0,0.0,0,0.0,0.0,0.0,0.0,0.0
157,21,2.1599359,2,True,0.5,acc,right,False,2,1,6,ret,1,10,0,"['4', '4', '3', '2', '1', '2']","[125.7351054000028, 125.96702300000106, 126.91901540000254, 127.11081510000076, 127.80691450000086, 127.89504130000205]",6,6,# # # # # #,None,125.7351054000028,125.96702300000106,126.91901540000254,127.11081510000076,127.80691450000086,127.89504130000205,2.5240652000029513,0.231917599998269,0.9519924000014726,0.19179969999822788,0.6960994000000937,0.08812680000119144
158,22,0.0,3,False,0.0,None,right,False,2,1,0,enc,0,0,0,[],[],6,6,3 1 3 4 2 3,6,0.0,0.0,0.0,0.0,0.0,0.0,0,0.0,0.0,0.0,0.0,0.0
159,23,3.3919104,3,True,0.5,acc,right,True,2,1,3,ret,1,3,0,"['2', '3', '4', '3', '1', '1']","[137.54295910000292, 137.75893700000233, 138.15891890000057, 140.29490930000247, 140.46302520000245, 140.9348695000008]",6,6,# # # # # #,None,137.54295910000292,137.75893700000233,138.15891890000057,140.29490930000247,140.46302520000245,140.9348695000008,3.1479178000008687,0.21597789999941597,0.3999818999982381,2.1359904000019014,0.16811589999997523,0.4718442999983381
160,0,0.0,2,False,0.0,None,right,False,2,1,0,enc,0,0,1,[],[],7,6,2 4 4 2 1 3,4,0.0,0.0,0.0,0.0,0.0,0.0,0,0.0,0.0,0.0,0.0,0.0
161,1,1.9437199,2,True,0.5,acc,right,False,2,1,6,ret,1,10,1,"['2', '4', '4', '2', '1', '3']","[8.092615999998088, 8.636454399998911, 9.004529799996817, 9.300281399999221, 9.7888658999982, 10.03633589999663]",7,6,# # # # # #,None,8.092615999998088,8.636454399998911,9.004529799996817,9.300281399999221,9.7888658999982,10.03633589999663,NaN,0.5438384000008227,0.36807539999790606,0.2957516000024043,0.48858449999897857,0.24746999999842956
162,2,0.0,3,False,0.0,None,right,False,2,1,0,enc,0,0,1,[],[],7,6,2 4 3 1 4 4,6,0.0,0.0,0.0,0.0,0.0,0.0,0,0.0,0.0,0.0,0.0,0.0
163,3,1.6478058,3,True,0.5,acc,right,False,2,1,6,ret,1,10,1,"['2', '4', '3', '1', '4', '4']","[17.100607899999886, 17.35700729999735, 17.628302399996755, 18.236388099998294, 18.58052459999817, 18.74841369999922]",7,6,# # # # # #,None,17.100607899999886,17.35700729999735,17.628302399996755,18.236388099998294,18.58052459999817,18.74841369999922,0.5642720000032568,0.25639939999746275,0.2712950999994064,0.6080857000015385,0.34413649999987683,0.16788910000104806
164,4,0.0,3,False,0.0,None,right,False,2,1,0,enc,0,0,1,[],[],7,6,3 3 4 4 4 1,6,0.0,0.0,0.0,0.0,0.0,0.0,0,0.0,0.0,0.0,0.0,0.0
165,5,1.3359943,3,True,0.5,acc,right,False,2,1,6,ret,1,10,1,"['3', '3', '4', '4', '4', '1']","[25.580577099997754, 25.748592899999494, 26.020482299998548, 26.54863159999877, 26.724571499999, 26.916571399997338]",7,6,# # # # # #,None,25.580577099997754,25.748592899999494,26.020482299998548,26.54863159999877,26.724571499999,26.916571399997338,0.33216339999853517,0.16801580000174,0.27188939999905415,0.5281493000002229,0.1759399000002304,0.19199989999833633
166,6,0.0,2,False,0.0,None,right,False,2,1,0,enc,0,0,1,[],[],7,6,4 1 2 3 3 2,4,0.0,0.0,0.0,0.0,0.0,0.0,0,0.0,0.0,0.0,0.0,0.0
167,7,3.9198109,2,True,0.5,acc,right,True,2,1,5,ret,1,5,1,"['4', '1', '2', '3', '4', '2']","[36.63659259999986, 36.908307999998215, 37.612446799998, 37.88434719999714, 40.01237140000012, 40.55640349999885]",7,6,# # # # # #,None,36.63659259999986,36.908307999998215,37.612446799998,37.88434719999714,40.01237140000012,40.55640349999885,3.2200212000025203,0.2717153999983566,0.7041387999997823,0.27190039999914006,2.128024200002983,0.5440320999987307
168,8,0.0,3,False,0.0,None,right,False,2,1,0,enc,0,0,0,[],[],7,6,3 4 2 1 2 2,6,0.0,0.0,0.0,0.0,0.0,0.0,0,0.0,0.0,0.0,0.0,0.0
169,9,4.8719954,3,True,0.5,acc,right,False,2,1,6,ret,1,10,0,"['2', '2', '1', '2', '4', '3']","[47.56449189999694, 47.98837459999777, 48.32449489999999, 51.74050149999675, 52.30056479999985, 52.43648729999768]",7,6,# # # # # #,None,47.56449189999694,47.98837459999777,48.32449489999999,51.74050149999675,52.30056479999985,52.43648729999768,0.508088399998087,0.4238827000008314,0.3361203000022215,3.416006599996763,0.5600633000030939,0.13592249999783235
170,10,0.0,2,False,0.0,None,right,False,2,1,0,enc,0,0,0,[],[],7,6,4 4 3 4 3 3,4,0.0,0.0,0.0,0.0,0.0,0.0,0,0.0,0.0,0.0,0.0,0.0
171,11,6.8641095,2,True,0.5,acc,right,False,2,1,6,ret,1,10,0,"['3', '3', '4', '3', '4', '4']","[61.14036599999963, 61.33220569999685, 65.9802896000001, 66.13238619999902, 67.86029699999926, 68.00447549999808]",7,6,# # # # # #,None,61.14036599999963,61.33220569999685,65.9802896000001,66.13238619999902,67.86029699999926,68.00447549999808,2.203878700001951,0.1918396999972174,4.648083900003257,0.152096599998913,1.7279108000002452,0.14417849999881582
172,12,0.0,2,False,0.0,None,right,False,2,1,0,enc,0,0,0,[],[],7,6,4 1 4 1 4 2,4,0.0,0.0,0.0,0.0,0.0,0.0,0,0.0,0.0,0.0,0.0,0.0
173,13,1.7839814,2,True,0.5,acc,right,False,2,1,6,ret,1,10,0,"['2', '4', '1', '4', '1', '4']","[77.51631300000008, 77.5962357999997, 78.80498969999826, 78.87636129999737, 79.22061129999929, 79.30029439999998]",7,6,# # # # # #,None,77.51631300000008,77.5962357999997,78.80498969999826,78.87636129999737,79.22061129999929,79.30029439999998,3.0118375000020023,0.07992279999962193,1.2087538999985554,0.07137159999911091,0.34425000000192085,0.07968310000069323
174,14,0.0,3,False,0.0,None,right,False,2,1,0,enc,0,0,1,[],[],7,6,2 1 4 3 1 2,6,0.0,0.0,0.0,0.0,0.0,0.0,0,0.0,0.0,0.0,0.0,0.0
175,15,1.9526309,3,True,0.5,acc,right,False,2,1,6,ret,1,10,1,"['2', '1', '4', '3', '1', '2']","[86.30844539999816, 86.54051019999679, 86.80423549999978, 87.70829889999732, 88.17255189999923, 88.26107629999751]",7,6,# # # # # #,None,86.30844539999816,86.54051019999679,86.80423549999978,87.70829889999732,88.17255189999923,88.26107629999751,0.508150999998179,0.23206479999862495,0.26372530000298866,0.9040633999975398,0.4642530000019178,0.08852439999827766
176,16,0.0,2,False,0.0,None,right,False,2,1,0,enc,0,0,0,[],[],7,6,4 4 4 2 4 2,4,0.0,0.0,0.0,0.0,0.0,0.0,0,0.0,0.0,0.0,0.0,0.0
177,17,1.5515194,2,True,0.5,acc,right,False,2,1,6,ret,1,10,0,"['2', '4', '2', '4', '4', '4']","[97.50873030000002, 97.58823889999985, 98.14819559999887, 98.20444059999863, 98.93224539999937, 99.06024969999999]",7,6,# # # # # #,None,97.50873030000002,97.58823889999985,98.14819559999887,98.20444059999863,98.93224539999937,99.06024969999999,2.7476540000025125,0.0795085999998264,0.5599566999990202,0.05624499999976251,0.7278048000007402,0.1280043000006117
178,18,0.0,3,False,0.0,None,right,False,2,1,0,enc,0,0,0,[],[],7,6,3 1 4 4 2 4,6,0.0,0.0,0.0,0.0,0.0,0.0,0,0.0,0.0,0.0,0.0,0.0
179,19,2.9599626,3,True,0.5,acc,right,False,2,1,6,ret,1,10,0,"['4', '2', '4', '4', '1', '3']","[106.09226279999712, 106.56416279999758, 106.98130219999803, 108.4842693999999, 108.91643109999859, 109.05222539999886]",7,6,# # # # # #,None,106.09226279999712,106.56416279999758,106.98130219999803,108.4842693999999,108.91643109999859,109.05222539999886,0.5320130999971298,0.47190000000045984,0.41713940000045113,1.5029672000018763,0.43216169999868725,0.1357943000002706
180,20,0.0,3,False,0.0,None,right,False,2,1,0,enc,0,0,0,[],[],7,6,1 4 2 2 3 4,6,0.0,0.0,0.0,0.0,0.0,0.0,0,0.0,0.0,0.0,0.0,0.0
181,21,3.783849,3,True,0.5,acc,right,False,2,1,6,ret,1,10,0,"['4', '3', '2', '2', '4', '1']","[116.22039519999817, 116.5002007999974, 116.74822700000004, 119.67627489999722, 119.80497039999682, 120.00424419999763]",7,6,# # # # # #,None,116.22039519999817,116.5002007999974,116.74822700000004,119.67627489999722,119.80497039999682,120.00424419999763,0.6681697999993048,0.2798055999992357,0.24802620000264142,2.928047899997182,0.12869549999959418,0.1992738000008103
182,22,0.0,2,False,0.0,None,right,False,2,1,0,enc,0,0,1,[],[],7,6,1 1 2 1 1 3,4,0.0,0.0,0.0,0.0,0.0,0.0,0,0.0,0.0,0.0,0.0,0.0
183,23,2.5841266,2,True,0.5,acc,right,True,2,1,5,ret,1,5,1,"['1', '1', '2', '1', '3', '3']","[128.48441989999992, 128.62823969999954, 129.17234429999735, 129.35622709999734, 129.62015129999781, 131.06854649999877]",7,6,# # # # # #,None,128.48441989999992,128.62823969999954,129.17234429999735,129.35622709999734,129.62015129999781,131.06854649999877,1.9801757000022917,0.14381979999961914,0.5441045999978087,0.18388279999999213,0.26392420000047423,1.4483952000009594
184,0,0.0,2,False,0.0,None,right,False,2,1,0,enc,0,0,1,[],[],8,6,4 2 3 2 2 2,4,0.0,0.0,0.0,0.0,0.0,0.0,0,0.0,0.0,0.0,0.0,0.0
185,1,1.7438254,2,True,0.5,acc,right,False,2,1,6,ret,1,10,1,"['4', '2', '3', '2', '2', '2']","[7.747961900000519, 8.05180130000008, 8.6437857000019, 8.779728800000157, 9.027718000001187, 9.491787300001306]",8,6,# # # # # #,None,7.747961900000519,8.05180130000008,8.6437857000019,8.779728800000157,9.027718000001187,9.491787300001306,NaN,0.30383939999956056,0.5919844000018202,0.13594309999825782,0.24798920000102953,0.46406930000011926
186,2,0.0,2,False,0.0,None,right,False,2,1,0,enc,0,0,1,[],[],8,6,1 1 1 3 1 4,4,0.0,0.0,0.0,0.0,0.0,0.0,0,0.0,0.0,0.0,0.0,0.0
187,3,1.4719654,2,True,0.5,acc,right,False,2,1,6,ret,1,10,1,"['1', '1', '1', '3', '1', '4']","[18.075723100002506, 18.22069940000074, 18.755826600001456, 18.963784400002623, 19.339715900001465, 19.54768850000255]",8,6,# # # # # #,None,18.075723100002506,18.22069940000074,18.755826600001456,18.963784400002623,19.339715900001465,19.54768850000255,2.0839358000012,0.14497629999823403,0.5351272000007157,0.20795780000116793,0.3759314999988419,0.20797260000108508
188,4,0.0,2,False,0.0,None,right,False,2,1,0,enc,0,0,0,[],[],8,6,2 1 2 1 3 4,4,0.0,0.0,0.0,0.0,0.0,0.0,0,0.0,0.0,0.0,0.0,0.0
189,5,1.9998508,2,True,0.5,acc,right,False,2,1,6,ret,1,10,0,"['4', '3', '1', '2', '1', '2']","[28.57174920000034, 28.73957010000231, 29.627684200000658, 29.979827600000135, 30.371695600002568, 30.571600000002945]",8,6,# # # # # #,None,28.57174920000034,28.73957010000231,29.627684200000658,29.979827600000135,30.371695600002568,30.571600000002945,2.52406069999779,0.16782090000197059,0.8881140999983472,0.35214339999947697,0.3918680000024324,0.1999044000003778
190,6,0.0,2,False,0.0,None,right,False,2,1,0,enc,0,0,1,[],[],8,6,1 3 1 4 2 3,4,0.0,0.0,0.0,0.0,0.0,0.0,0,0.0,0.0,0.0,0.0,0.0
191,7,1.367987,2,True,0.5,acc,right,False,2,1,6,ret,1,10,1,"['1', '3', '1', '4', '2', '3']","[39.20369930000015, 39.42783090000012, 39.715706100003445, 39.987710200002766, 40.46764130000156, 40.5716863000016]",8,6,# # # # # #,None,39.20369930000015,39.42783090000012,39.715706100003445,39.987710200002766,40.46764130000156,40.5716863000016,2.1320992999972077,0.22413159999996424,0.28787520000332734,0.2720040999993216,0.4799310999987938,0.10404500000004191
192,8,0.0,3,False,0.0,None,right,False,2,1,0,enc,0,0,1,[],[],8,6,1 4 3 3 2 2,6,0.0,0.0,0.0,0.0,0.0,0.0,0,0.0,0.0,0.0,0.0,0.0
193,9,2.2240392,3,True,0.5,acc,right,False,2,1,6,ret,1,10,1,"['1', '4', '3', '3', '2', '2']","[47.23569650000354, 47.923742000002676, 48.259665000001405, 49.04377170000225, 49.33171160000347, 49.45973570000206]",8,6,# # # # # #,None,47.23569650000354,47.923742000002676,48.259665000001405,49.04377170000225,49.33171160000347,49.45973570000206,0.16401020000193967,0.6880454999991343,0.3359229999987292,0.7841067000008479,0.28793990000121994,0.12802409999858355
194,10,0.0,2,False,0.0,None,right,False,2,1,0,enc,0,0,0,[],[],8,6,4 3 3 4 4 1,4,0.0,0.0,0.0,0.0,0.0,0.0,0,0.0,0.0,0.0,0.0,0.0
195,11,5.9200211,2,True,0.5,acc,right,False,2,1,6,ret,1,10,0,"['1', '4', '4', '3', '3', '4']","[58.42775200000324, 58.67567140000028, 61.97969530000046, 62.25968160000048, 64.21965760000239, 64.34777310000209]",8,6,# # # # # #,None,58.42775200000324,58.67567140000028,61.97969530000046,62.25968160000048,64.21965760000239,64.34777310000209,2.4680163000011817,0.24791939999704482,3.3040239000001748,0.2799863000000187,1.959976000001916,0.1281154999996943
196,12,0.0,2,False,0.0,None,right,False,2,1,0,enc,0,0,0,[],[],8,6,3 1 3 2 4 2,4,0.0,0.0,0.0,0.0,0.0,0.0,0,0.0,0.0,0.0,0.0,0.0
197,13,7.4719637,2,True,0.5,acc,right,True,2,1,5,ret,1,5,0,"['2', '4', '2', '4', '1', '3']","[73.33165380000355, 73.49159580000196, 78.51578190000146, 78.62760560000243, 80.71560250000039, 80.80361750000156]",8,6,# # # # # #,None,73.33165380000355,73.49159580000196,78.51578190000146,78.62760560000243,80.71560250000039,80.80361750000156,2.483880700001464,0.1599419999984093,5.024186099999497,0.11182370000096853,2.087996899997961,0.08801500000117812
198,14,0.0,3,False,0.0,None,right,False,2,1,0,enc,0,0,1,[],[],8,6,1 3 2 3 3 3,6,0.0,0.0,0.0,0.0,0.0,0.0,0,0.0,0.0,0.0,0.0,0.0
199,15,1.3678866,3,True,0.5,acc,right,False,2,1,6,ret,1,10,1,"['1', '3', '2', '3', '3', '3']","[87.65173480000158, 87.89976580000075, 88.17965710000135, 88.4597231000007, 88.70768970000063, 89.0196214000025]",8,6,# # # # # #,None,87.65173480000158,87.89976580000075,88.17965710000135,88.4597231000007,88.70768970000063,89.0196214000025,0.3481173000000126,0.24803099999917322,0.2798913000005996,0.28006599999935133,0.24796659999992698,0.3119317000018782
200,16,0.0,3,False,0.0,None,right,False,2,1,0,enc,0,0,1,[],[],8,6,4 2 4 4 2 4,6,0.0,0.0,0.0,0.0,0.0,0.0,0,0.0,0.0,0.0,0.0,0.0
201,17,1.6959908,3,True,0.5,acc,right,False,2,1,6,ret,1,10,1,"['4', '2', '4', '4', '2', '4']","[95.56366560000242, 95.87566720000177, 96.17166250000082, 96.7636476000007, 97.01164000000063, 97.2596564000014]",8,6,# # # # # #,None,95.56366560000242,95.87566720000177,96.17166250000082,96.7636476000007,97.01164000000063,97.2596564000014,0.0440441999999166,0.3120015999993484,0.29599529999904917,0.5919850999998744,0.24799239999993006,0.24801640000077896
202,18,0.0,3,False,0.0,None,right,False,2,1,0,enc,0,0,0,[],[],8,6,1 2 2 3 1 1,6,0.0,0.0,0.0,0.0,0.0,0.0,0,0.0,0.0,0.0,0.0,0.0
203,19,4.3279337,3,True,0.5,acc,right,True,2,1,5,ret,1,5,0,"['1', '1', '3', '2', '4', '1']","[104.22761720000199, 104.7076294000035, 105.29974420000144, 107.99554640000133, 108.35565130000032, 108.55555090000053]",8,6,# # # # # #,None,104.22761720000199,104.7076294000035,105.29974420000144,107.99554640000133,108.35565130000032,108.55555090000053,0.4679608000005828,0.4800122000015108,0.5921147999979439,2.695802199999889,0.3601048999989871,0.199899600000208
204,20,0.0,3,False,0.0,None,right,False,2,1,0,enc,0,0,0,[],[],8,6,2 3 1 1 3 4,6,0.0,0.0,0.0,0.0,0.0,0.0,0,0.0,0.0,0.0,0.0,0.0
205,21,5.2077685,3,True,0.5,acc,right,False,2,1,6,ret,1,10,0,"['4', '3', '1', '1', '3', '2']","[116.28379010000208, 116.61969950000275, 116.87561010000354, 119.3156256000002, 121.3557146000021, 121.49155860000246]",8,6,# # # # # #,None,116.28379010000208,116.61969950000275,116.87561010000354,119.3156256000002,121.3557146000021,121.49155860000246,1.2282392000015534,0.3359094000006735,0.2559106000007887,2.4400154999966617,2.040089000001899,0.13584400000036112
206,22,0.0,3,False,0.0,None,right,False,2,1,0,enc,0,0,0,[],[],8,6,4 3 2 2 1 3,6,0.0,0.0,0.0,0.0,0.0,0.0,0,0.0,0.0,0.0,0.0,0.0
207,23,2.3600171,3,True,0.5,acc,right,True,2,1,4,ret,1,4,0,"['3', '1', '2', '4', '3', '2']","[128.40364160000172, 128.65960570000243, 128.87553070000286, 130.05959920000168, 130.4917639000014, 130.76365870000154]",8,6,# # # # # #,None,128.40364160000172,128.65960570000243,128.87553070000286,130.05959920000168,130.4917639000014,130.76365870000154,0.41208299999925657,0.25596410000071046,0.21592500000042492,1.1840684999988298,0.43216469999970286,0.27189480000015465
