,Tn,MT,chunk,display_trial_feedback,feedback_dur,feedback_type,hand,is_error,item_dur,iti_dur,number_correct,phase,phase_type,points,recall_dir,response,response_time,run_number,seq_length,seq_str,trial_dur,P1,P2,P3,P4,P5,P6,IPI_0,IPI_1,IPI_2,IPI_3,IPI_4,IPI_5
0,0,0.0,3,False,0.0,None,right,False,2,1,0,enc,0,0,1,[],[],1,6,2 2 2 4 4 3,6,0.0,0.0,0.0,0.0,0.0,0.0,0,0.0,0.0,0.0,0.0,0.0
1,1,1.3916704999865033,3,True,0.5,acc,right,True,2,1,5,ret,1,5,1,"['2', '2', '2', '4', '2', '3']","[20.699145300022792, 21.002956100011943, 21.274915800022427, 21.594893400004366, 21.906908500008285, 22.090815800009295]",1,6,# # # # # #,None,20.699145300022792,21.002956100011943,21.274915800022427,21.594893400004366,21.906908500008285,22.090815800009295,14.199145300022792,0.30381079998915084,0.2719597000104841,0.3199775999819394,0.31201510000391863,0.1839073000010103
2,2,0.0,3,False,0.0,None,right,False,2,1,0,enc,0,0,1,[],[],1,6,1 3 1 3 1 2,6,0.0,0.0,0.0,0.0,0.0,0.0,0,0.0,0.0,0.0,0.0,0.0
3,3,6.7039576999959545,3,True,0.5,acc,right,True,2,1,4,ret,1,4,1,"['1', '3', '1', 'space', '4', '2']","[30.442849100014428, 30.74689490001765, 31.11484510000446, 31.418808500020532, 35.75479630002519, 37.14680680001038]",1,6,# # # # # #,None,30.442849100014428,30.74689490001765,31.11484510000446,31.418808500020532,35.75479630002519,37.14680680001038,1.8520333000051323,0.3040458000032231,0.367950199986808,0.30396340001607314,4.335987800004659,1.39201049998519
4,4,0.0,3,False,0.0,None,right,False,2,1,0,enc,0,0,0,[],[],1,6,4 1 4 3 4 3,6,0.0,0.0,0.0,0.0,0.0,0.0,0,0.0,0.0,0.0,0.0,0.0
5,5,3.767989600019064,3,True,0.5,acc,right,False,2,1,6,ret,1,10,0,"['3', '4', '3', '4', '1', '4']","[44.66676890000235, 45.77862820000155, 46.162802000006195, 47.938768300024094, 48.22672820001026, 48.43475850002142]",1,6,# # # # # #,None,44.66676890000235,45.77862820000155,46.162802000006195,47.938768300024094,48.22672820001026,48.43475850002142,1.0199620999919716,1.111859299999196,0.3841738000046462,1.775966300017899,0.2879598999861628,0.20803030001115985
6,6,0.0,2,False,0.0,None,right,False,2,1,0,enc,0,0,1,[],[],1,6,4 3 4 1 4 4,4,0.0,0.0,0.0,0.0,0.0,0.0,0,0.0,0.0,0.0,0.0,0.0
7,7,1.8640223999973389,2,True,0.5,acc,right,False,2,1,6,ret,1,10,1,"['4', '3', '4', '1', '4', '4']","[57.73070370001369, 58.12282680001226, 58.48277230001986, 58.834720000013476, 59.41071590001229, 59.59472610001103]",1,6,# # # # # #,None,57.73070370001369,58.12282680001226,58.48277230001986,58.834720000013476,59.41071590001229,59.59472610001103,2.795945199992275,0.392123099998571,0.35994550000759773,0.35194769999361597,0.5759958999988157,0.18401019999873824
8,8,0.0,2,False,0.0,None,right,False,2,1,0,enc,0,0,0,[],[],1,6,4 1 3 3 1 4,4,0.0,0.0,0.0,0.0,0.0,0.0,0,0.0,0.0,0.0,0.0,0.0
9,9,4.096049099985977,2,True,0.5,acc,right,False,2,1,6,ret,1,10,0,"['4', '1', '3', '3', '1', '4']","[69.010740000027, 69.42663910001284, 70.51479880002444, 70.83545320000849, 72.80280610002228, 73.10678910001297]",1,6,# # # # # #,None,69.010740000027,69.42663910001284,70.51479880002444,70.83545320000849,72.80280610002228,73.10678910001297,2.916013900015969,0.4158990999858361,1.0881597000116017,0.32065439998405054,1.9673529000137933,0.3039829999906942
10,10,0.0,2,False,0.0,None,right,False,2,1,0,enc,0,0,0,[],[],1,6,1 3 4 2 2 2,4,0.0,0.0,0.0,0.0,0.0,0.0,0,0.0,0.0,0.0,0.0,0.0
11,11,4.432011099997909,2,True,0.5,acc,right,True,2,1,2,ret,1,2,0,"['2', '2', '3', '1', '4', '2']","[82.73872620001202, 83.00259370001731, 84.45861510001123, 84.70671000002767, 86.40273820000584, 87.17073730000993]",1,6,# # # # # #,None,82.73872620001202,83.00259370001731,84.45861510001123,84.70671000002767,86.40273820000584,87.17073730000993,3.1319370999990497,0.2638675000052899,1.456021399993915,0.24809490001644008,1.6960281999781728,0.76799910000409
12,12,0.0,3,False,0.0,None,right,False,2,1,0,enc,0,0,0,[],[],1,6,4 1 1 1 4 3,6,0.0,0.0,0.0,0.0,0.0,0.0,0,0.0,0.0,0.0,0.0,0.0
13,13,3.663990000000922,3,True,0.5,acc,right,True,2,1,3,ret,1,3,0,"['3', '3', '1', '4', '4', '4']","[96.42673530001775, 96.80278360002558, 97.1067197000084, 98.93874180002604, 99.74667410002439, 100.09072530001868]",1,6,# # # # # #,None,96.42673530001775,96.80278360002558,97.1067197000084,98.93874180002604,99.74667410002439,100.09072530001868,2.7559980000078212,0.37604830000782385,0.30393609998282045,1.8320221000176389,0.807932299998356,0.3440511999942828
14,14,0.0,2,False,0.0,None,right,False,2,1,0,enc,0,0,1,[],[],1,6,1 2 3 4 3 1,4,0.0,0.0,0.0,0.0,0.0,0.0,0,0.0,0.0,0.0,0.0,0.0
15,15,2.8798623999755364,2,True,0.5,acc,right,True,2,1,3,ret,1,3,1,"['1', '2', '3', '1', '1', '2']","[108.74675100002787, 109.0507171000063, 109.53068900000653, 109.95471090002684, 111.34675870000501, 111.62661340000341]",1,6,# # # # # #,None,108.74675100002787,109.0507171000063,109.53068900000653,109.95471090002684,111.34675870000501,111.62661340000341,2.156025700009195,0.3039660999784246,0.47997190000023693,0.42402190002030693,1.3920477999781724,0.2798546999983955
16,0,0.0,3,False,0.0,None,right,False,2,1,0,enc,0,0,1,[],[],1,6,4 2 2 1 1 2,6,0.0,0.0,0.0,0.0,0.0,0.0,0,0.0,0.0,0.0,0.0,0.0
17,1,2.2239057999977376,3,True,0.5,acc,right,True,2,1,5,ret,1,5,1,"['4', '2', '2', '1', '2', '2']","[5.419882999995025, 5.699589800002286, 5.8597319000109565, 6.123906399996486, 6.635852800012799, 7.6437887999927625]",1,6,# # # # # #,None,5.419882999995025,5.699589800002286,5.8597319000109565,6.123906399996486,6.635852800012799,7.6437887999927625,NaN,0.27970680000726134,0.16014210000867024,0.2641744999855291,0.5119464000163134,1.0079359999799635
18,2,0.0,3,False,0.0,None,right,False,2,1,0,enc,0,0,1,[],[],1,6,3 3 2 2 3 3,6,0.0,0.0,0.0,0.0,0.0,0.0,0,0.0,0.0,0.0,0.0,0.0
19,3,1.287854399997741,3,True,0.5,acc,right,False,2,1,6,ret,1,10,1,"['3', '3', '2', '2', '3', '3']","[13.827947100013262, 14.05180190000101, 14.299775299994508, 14.699774700013222, 14.931863100006012, 15.115801500011003]",1,6,# # # # # #,None,13.827947100013262,14.05180190000101,14.299775299994508,14.699774700013222,14.931863100006012,15.115801500011003,-0.31584169997950085,0.22385479998774827,0.24797339999349788,0.39999940001871437,0.23208839999279007,0.1839384000049904
20,4,0.0,2,False,0.0,None,right,False,2,1,0,enc,0,0,0,[],[],1,6,1 4 4 2 2 1,4,0.0,0.0,0.0,0.0,0.0,0.0,0,0.0,0.0,0.0,0.0,0.0
21,5,4.824148300016532,2,True,0.5,acc,right,True,2,1,3,ret,1,3,0,"['1', '2', '4', '2', '2', '1']","[29.227789099997608, 29.547729899990372, 30.97971189999953, 33.339797399996314, 33.731847799994284, 34.05193740001414]",1,6,# # # # # #,None,29.227789099997608,29.547729899990372,30.97971189999953,33.339797399996314,33.731847799994284,34.05193740001414,7.611987599986605,0.31994079999276437,1.4319820000091568,2.360085499996785,0.3920503999979701,0.3200896000198554
22,6,0.0,3,False,0.0,None,right,False,2,1,0,enc,0,0,0,[],[],1,6,2 3 3 2 4 1,6,0.0,0.0,0.0,0.0,0.0,0.0,0,0.0,0.0,0.0,0.0,0.0
23,7,7.351901199988787,3,True,0.5,acc,right,True,2,1,5,ret,1,5,0,"['1', '4', '2', '3', '3', '1']","[41.123853600001894, 41.979877500009025, 42.38784830001532, 47.92365909999353, 48.22778760001529, 48.47575479999068]",1,6,# # # # # #,None,41.123853600001894,41.979877500009025,42.38784830001532,47.92365909999353,48.22778760001529,48.47575479999068,0.5719161999877542,0.8560239000071306,0.4079708000062965,5.535810799978208,0.3041285000217613,0.24796719997539185
24,8,0.0,2,False,0.0,None,right,False,2,1,0,enc,0,0,0,[],[],1,6,4 3 2 1 3 4,4,0.0,0.0,0.0,0.0,0.0,0.0,0,0.0,0.0,0.0,0.0,0.0
25,9,5.008478499978082,2,True,0.5,acc,right,True,2,1,4,ret,1,4,0,"['3', '4', '1', '2', '3', '4']","[58.779780300013954, 59.28374069998972, 62.37169120000908, 62.659691000008024, 62.93170869999449, 63.788258799992036]",1,6,# # # # # #,None,58.779780300013954,59.28374069998972,62.37169120000908,62.659691000008024,62.93170869999449,63.788258799992036,3.804025500023272,0.5039603999757674,3.0879505000193603,0.28799979999894276,0.2720176999864634,0.8565500999975484
26,10,0.0,2,False,0.0,None,right,False,2,1,0,enc,0,0,1,[],[],1,6,4 3 3 1 1 2,4,0.0,0.0,0.0,0.0,0.0,0.0,0,0.0,0.0,0.0,0.0,0.0
27,11,2.2080656999896746,2,True,0.5,acc,right,False,2,1,6,ret,1,10,1,"['4', '3', '3', '1', '1', '2']","[73.19566220001434, 74.13165950000985, 74.4277071999968, 74.65978789998917, 75.17977859999519, 75.40372790000401]",1,6,# # # # # #,None,73.19566220001434,74.13165950000985,74.4277071999968,74.65978789998917,75.17977859999519,75.40372790000401,2.9074034000223037,0.9359972999955062,0.296047699986957,0.23208069999236614,0.5199907000060193,0.22394930000882596
28,12,0.0,3,False,0.0,None,right,False,2,1,0,enc,0,0,0,[],[],1,6,2 3 4 2 2 1,6,0.0,0.0,0.0,0.0,0.0,0.0,0,0.0,0.0,0.0,0.0,0.0
29,13,6.432824599993182,3,True,0.5,acc,right,True,2,1,4,ret,1,4,0,"['1', '2', '2', '4', '2', '3']","[83.90771520000999, 84.2436844999902, 84.5157528000127, 87.85956989999977, 89.65172520000488, 90.34053980000317]",1,6,# # # # # #,None,83.90771520000999,84.2436844999902,84.5157528000127,87.85956989999977,89.65172520000488,90.34053980000317,2.0039873000059742,0.3359692999802064,0.2720683000225108,3.3438170999870636,1.7921553000051063,0.6888145999982953
30,14,0.0,2,False,0.0,None,right,False,2,1,0,enc,0,0,1,[],[],1,6,4 2 3 4 2 1,4,0.0,0.0,0.0,0.0,0.0,0.0,0,0.0,0.0,0.0,0.0,0.0
31,15,2.92753200000152,2,True,0.5,acc,right,True,2,1,2,ret,1,2,1,"['4', '2', '2', '1', '3', '4']","[99.41203070001211, 99.7957322000002, 100.87581349999527, 101.22780890000286, 101.58778699999675, 102.33956270001363]",1,6,# # # # # #,None,99.41203070001211,99.7957322000002,100.87581349999527,101.22780890000286,101.58778699999675,102.33956270001363,2.571490900008939,0.3837014999880921,1.0800812999950722,0.35199540000758134,0.35997809999389574,0.7517757000168785
32,16,0.0,2,False,0.0,None,right,False,2,1,0,enc,0,0,1,[],[],1,6,1 4 1 3 2 4,4,0.0,0.0,0.0,0.0,0.0,0.0,0,0.0,0.0,0.0,0.0,0.0
33,17,6.112062500003956,2,True,0.5,acc,right,True,2,1,5,ret,1,5,1,"['1', '4', '1', '3', '2', '3']","[111.55566330000875, 112.54771189999883, 113.79566979999072, 114.09964060000493, 115.84388309999486, 117.6677258000127]",1,6,# # # # # #,None,111.55566330000875,112.54771189999883,113.79566979999072,114.09964060000493,115.84388309999486,117.6677258000127,2.7161005999951158,0.9920485999900848,1.2479578999918886,0.3039708000142127,1.744242499989923,1.823842700017849
34,18,0.0,3,False,0.0,None,right,False,2,1,0,enc,0,0,0,[],[],1,6,2 3 3 3 3 4,6,0.0,0.0,0.0,0.0,0.0,0.0,0,0.0,0.0,0.0,0.0,0.0
35,19,1.919961899984628,3,True,0.5,acc,right,False,2,1,6,ret,1,10,0,"['4', '3', '3', '3', '3', '2']","[124.96376320000854, 125.42752679999103, 125.77167340001324, 126.19584249999025, 126.57170359999873, 126.88372509999317]",1,6,# # # # # #,None,124.96376320000854,125.42752679999103,125.77167340001324,126.19584249999025,126.57170359999873,126.88372509999317,0.7960373999958392,0.4637635999824852,0.34414660002221353,0.42416909997700714,0.3758611000084784,0.31202149999444373
36,20,0.0,3,False,0.0,None,right,False,2,1,0,enc,0,0,1,[],[],1,6,1 1 3 2 2 4,6,0.0,0.0,0.0,0.0,0.0,0.0,0,0.0,0.0,0.0,0.0,0.0
37,21,1.3919212000037078,3,True,0.5,acc,right,False,2,1,6,ret,1,10,1,"['1', '1', '3', '2', '2', '4']","[133.2677049000049, 133.55565840000054, 133.81170789999305, 134.20365119999042, 134.43563339998946, 134.6596261000086]",1,6,# # # # # #,None,133.2677049000049,133.55565840000054,133.81170789999305,134.20365119999042,134.43563339998946,134.6596261000086,-0.11602019998827018,0.2879534999956377,0.25604949999251403,0.3919432999973651,0.23198219999903813,0.22399270001915284
38,22,0.0,2,False,0.0,None,right,False,2,1,0,enc,0,0,0,[],[],1,6,4 1 1 1 4 4,4,0.0,0.0,0.0,0.0,0.0,0.0,0,0.0,0.0,0.0,0.0,0.0
39,23,3.7200827000197023,2,True,0.5,acc,right,True,2,1,5,ret,1,5,0,"['4', '4', '1', '1', '1', '2']","[143.67565819999436, 143.95566070001223, 144.2676446000114, 144.57960349999485, 146.61956580000697, 147.39574090001406]",1,6,# # # # # #,None,143.67565819999436,143.95566070001223,144.2676446000114,144.57960349999485,146.61956580000697,147.39574090001406,2.5160320999857504,0.2800025000178721,0.3119838999991771,0.31195889998343773,2.039962300012121,0.7761751000070944
40,0,0.0,3,False,0.0,None,right,False,2,1,0,enc,0,0,1,[],[],2,6,3 2 2 3 2 3,6,0.0,0.0,0.0,0.0,0.0,0.0,0,0.0,0.0,0.0,0.0,0.0
41,1,1.3359331999963615,3,True,0.5,acc,right,False,2,1,6,ret,1,10,1,"['3', '2', '2', '3', '2', '3']","[4.772908899991307, 5.044918799976585, 5.260867899982259, 5.636984599987045, 5.829068699997151, 6.108842099987669]",2,6,# # # # # #,None,4.772908899991307,5.044918799976585,5.260867899982259,5.636984599987045,5.829068699997151,6.108842099987669,NaN,0.272009899985278,0.21594910000567324,0.37611670000478625,0.19208410001010634,0.27977339999051765
42,2,0.0,2,False,0.0,None,right,False,2,1,0,enc,0,0,1,[],[],2,6,2 4 4 4 4 1,4,0.0,0.0,0.0,0.0,0.0,0.0,0,0.0,0.0,0.0,0.0,0.0
43,3,2.623995300004026,2,True,0.5,acc,right,True,2,1,5,ret,1,5,1,"['2', '4', '4', '4', '2', '1']","[14.564963499986334, 15.17282019997947, 15.548904199997196, 15.82244200000423, 16.95691059998353, 17.18895879999036]",2,6,# # # # # #,None,14.564963499986334,15.17282019997947,15.548904199997196,15.82244200000423,16.95691059998353,17.18895879999036,1.9561213999986649,0.6078566999931354,0.3760840000177268,0.2735378000070341,1.1344685999793,0.23204820000682957
44,4,0.0,3,False,0.0,None,right,False,2,1,0,enc,0,0,1,[],[],2,6,1 4 1 4 4 3,6,0.0,0.0,0.0,0.0,0.0,0.0,0,0.0,0.0,0.0,0.0,0.0
45,5,1.6477719999966212,3,True,0.5,acc,right,False,2,1,6,ret,1,10,1,"['1', '4', '1', '4', '4', '3']","[24.220937699981732, 24.5088874999783, 24.804954099992756, 25.324895999976434, 25.580893999984255, 25.868709699978353]",2,6,# # # # # #,None,24.220937699981732,24.5088874999783,24.804954099992756,25.324895999976434,25.580893999984255,25.868709699978353,0.5319788999913726,0.2879497999965679,0.2960666000144556,0.519941899983678,0.25599800000782125,0.2878156999940984
46,6,0.0,3,False,0.0,None,right,False,2,1,0,enc,0,0,0,[],[],2,6,1 3 1 3 1 3,6,0.0,0.0,0.0,0.0,0.0,0.0,0,0.0,0.0,0.0,0.0,0.0
47,7,6.319963699992512,3,True,0.5,acc,right,True,2,1,2,ret,1,2,0,"['1', '3', '3', '4', '1', '1']","[33.79687749998993, 34.07695099999546, 35.59681339998497, 38.68471539998427, 39.66086069997982, 40.116841199982446]",2,6,# # # # # #,None,33.79687749998993,34.07695099999546,35.59681339998497,38.68471539998427,39.66086069997982,40.116841199982446,1.428167800011579,0.28007350000552833,1.5198623999895062,3.0879019999993034,0.9761452999955509,0.45598050000262447
48,8,0.0,2,False,0.0,None,right,False,2,1,0,enc,0,0,0,[],[],2,6,2 1 4 4 4 2,4,0.0,0.0,0.0,0.0,0.0,0.0,0,0.0,0.0,0.0,0.0,0.0
49,9,3.49594100000104,2,True,0.5,acc,right,False,2,1,6,ret,1,10,0,"['2', '4', '4', '4', '1', '2']","[49.74086459999671, 50.12475919999997, 50.58953709999332, 50.88494059999357, 53.07690449999063, 53.23680559999775]",2,6,# # # # # #,None,49.74086459999671,50.12475919999997,50.58953709999332,50.88494059999357,53.07690449999063,53.23680559999775,3.1240234000142664,0.38389460000325926,0.46477789999335073,0.29540350000024773,2.191963899997063,0.15990110000711866
50,10,0.0,3,False,0.0,None,right,False,2,1,0,enc,0,0,0,[],[],2,6,3 3 4 1 2 3,6,0.0,0.0,0.0,0.0,0.0,0.0,0,0.0,0.0,0.0,0.0,0.0
51,11,6.160101199988277,3,True,0.5,acc,right,True,2,1,3,ret,1,3,0,"['3', '2', '1', '1', '2', '2']","[61.028731600003084, 61.396806599979755, 61.72479829998338, 65.94873119998374, 66.52485009998782, 67.18883279999136]",2,6,# # # # # #,None,61.028731600003084,61.396806599979755,61.72479829998338,65.94873119998374,66.52485009998782,67.18883279999136,1.2919260000053328,0.36807499997667037,0.3279917000036221,4.223932900000364,0.5761189000040758,0.6639827000035439
52,12,0.0,2,False,0.0,None,right,False,2,1,0,enc,0,0,0,[],[],2,6,4 2 2 2 3 1,4,0.0,0.0,0.0,0.0,0.0,0.0,0,0.0,0.0,0.0,0.0,0.0
53,13,6.326732500019716,2,True,0.5,acc,right,True,2,1,4,ret,1,4,0,"['1', '3', '2', '2', '1', '1']","[77.77395879998221, 78.21348330000183, 78.90082129999064, 79.180919299979, 82.91685989999678, 84.10069130000193]",2,6,# # # # # #,None,77.77395879998221,78.21348330000183,78.90082129999064,79.180919299979,82.91685989999678,84.10069130000193,4.085125999990851,0.4395245000196155,0.687337999988813,0.2800979999883566,3.735940600017784,1.1838314000051469
54,14,0.0,3,False,0.0,None,right,False,2,1,0,enc,0,0,1,[],[],2,6,3 2 2 1 1 4,6,0.0,0.0,0.0,0.0,0.0,0.0,0,0.0,0.0,0.0,0.0,0.0
55,15,3.0878373000014108,3,True,0.5,acc,right,True,2,1,5,ret,1,5,1,"['3', '2', '2', '1', '4', '4']","[90.86884379998082, 91.1889154999808, 91.4846662999771, 91.80474490000051, 93.1088441000029, 93.95668109998223]",2,6,# # # # # #,None,90.86884379998082,91.1889154999808,91.4846662999771,91.80474490000051,93.1088441000029,93.95668109998223,0.26815249997889623,0.3200716999999713,0.2957507999963127,0.3200786000234075,1.3040992000023834,0.8478369999793358
56,16,0.0,2,False,0.0,None,right,False,2,1,0,enc,0,0,0,[],[],2,6,4 3 2 1 2 2,4,0.0,0.0,0.0,0.0,0.0,0.0,0,0.0,0.0,0.0,0.0,0.0
57,17,4.568232499994338,2,True,0.5,acc,right,False,2,1,6,ret,1,10,0,"['2', '2', '1', '2', '3', '4']","[103.06878929998493, 103.41281599999638, 106.90907490000245, 107.17271289997734, 107.4127284999995, 107.63702179997927]",2,6,# # # # # #,None,103.06878929998493,103.41281599999638,106.90907490000245,107.17271289997734,107.4127284999995,107.63702179997927,2.6121082000026945,0.3440267000114545,3.496258900006069,0.2636379999748897,0.24001560002216138,0.2242932999797631
58,18,0.0,2,False,0.0,None,right,False,2,1,0,enc,0,0,1,[],[],2,6,3 1 4 4 2 3,4,0.0,0.0,0.0,0.0,0.0,0.0,0,0.0,0.0,0.0,0.0,0.0
59,19,1.4079745000053665,2,True,0.5,acc,right,True,2,1,4,ret,1,4,1,"['3', '1', '4', '4', '1', '2']","[116.53286269999808, 116.86085209998419, 117.14086789998692, 117.36478249999345, 117.68474489997607, 117.94083720000344]",2,6,# # # # # #,None,116.53286269999808,116.86085209998419,117.14086789998692,117.36478249999345,117.68474489997607,117.94083720000344,2.3958409000188112,0.32798939998610877,0.2800158000027295,0.2239146000065375,0.31996239998261444,0.25609230002737604
60,20,0.0,3,False,0.0,None,right,False,2,1,0,enc,0,0,0,[],[],2,6,1 1 4 4 3 2,6,0.0,0.0,0.0,0.0,0.0,0.0,0,0.0,0.0,0.0,0.0,0.0
61,21,6.8638946999853925,3,True,0.5,acc,right,True,2,1,2,ret,1,2,0,"['2', '4', '4', '1', '2', '2']","[126.55683159999899, 128.07674989997759, 130.31671610000194, 132.6207385000016, 133.10069900000235, 133.42072629998438]",2,6,# # # # # #,None,126.55683159999899,128.07674989997759,130.31671610000194,132.6207385000016,133.10069900000235,133.42072629998438,2.115994399995543,1.519918299978599,2.239966200024355,2.304022399999667,0.4799605000007432,0.32002729998202994
62,22,0.0,2,False,0.0,None,right,False,2,1,0,enc,0,0,1,[],[],2,6,4 2 1 2 4 1,4,0.0,0.0,0.0,0.0,0.0,0.0,0,0.0,0.0,0.0,0.0,0.0
63,23,3.240179900021758,2,True,0.5,acc,right,True,2,1,5,ret,1,5,1,"['4', '2', '1', '2', '3', '1']","[142.54857669997727, 142.9006451999885, 143.20474970000214, 143.63675039997906, 145.3888433999964, 145.78875659999903]",2,6,# # # # # #,None,142.54857669997727,142.9006451999885,143.20474970000214,143.63675039997906,145.3888433999964,145.78875659999903,2.6278503999928944,0.352068500011228,0.3041045000136364,0.4320006999769248,1.7520930000173394,0.3999132000026293
64,0,0.0,2,False,0.0,None,right,False,2,1,0,enc,0,0,1,[],[],3,6,1 3 3 1 2 3,4,0.0,0.0,0.0,0.0,0.0,0.0,0,0.0,0.0,0.0,0.0,0.0
65,1,2.1599329999880865,2,True,0.5,acc,right,False,2,1,6,ret,1,10,1,"['1', '3', '3', '1', '2', '3']","[6.48504729999695, 6.788993299996946, 7.444942399975844, 8.180958299984923, 8.461004099983256, 8.644980299985036]",3,6,# # # # # #,None,6.48504729999695,6.788993299996946,7.444942399975844,8.180958299984923,8.461004099983256,8.644980299985036,NaN,0.3039459999999963,0.6559490999788977,0.7360159000090789,0.2800457999983337,0.18397620000177994
66,2,0.0,3,False,0.0,None,right,False,2,1,0,enc,0,0,0,[],[],3,6,2 3 1 2 2 1,6,0.0,0.0,0.0,0.0,0.0,0.0,0,0.0,0.0,0.0,0.0,0.0
67,3,3.800024900003337,3,True,0.5,acc,right,False,2,1,6,ret,1,10,0,"['1', '2', '2', '1', '3', '2']","[17.26887229998829, 17.580970399983926, 17.837134000001242, 20.74904830000014, 20.91705049999291, 21.068897199991625]",3,6,# # # # # #,None,17.26887229998829,17.580970399983926,17.837134000001242,20.74904830000014,20.91705049999291,21.068897199991625,2.123892000003252,0.3120980999956373,0.25616360001731664,2.911914299998898,0.16800219999277033,0.15184669999871403
68,4,0.0,3,False,0.0,None,right,False,2,1,0,enc,0,0,1,[],[],3,6,4 1 3 2 2 1,6,0.0,0.0,0.0,0.0,0.0,0.0,0,0.0,0.0,0.0,0.0,0.0
69,5,1.1760504000121728,3,True,0.5,acc,right,False,2,1,6,ret,1,10,1,"['4', '1', '3', '2', '2', '1']","[28.125013299984857, 28.381056399986846, 28.605039999994915, 28.925027699995553, 29.125104999984615, 29.30106369999703]",3,6,# # # # # #,None,28.125013299984857,28.381056399986846,28.605039999994915,28.925027699995553,29.125104999984615,29.30106369999703,0.5561160999932326,0.25604310000198893,0.2239836000080686,0.31998770000063814,0.20007729998906143,0.17595870001241565
70,6,0.0,2,False,0.0,None,right,False,2,1,0,enc,0,0,0,[],[],3,6,3 4 4 3 4 1,4,0.0,0.0,0.0,0.0,0.0,0.0,0,0.0,0.0,0.0,0.0,0.0
71,7,7.511189899989404,2,True,0.5,acc,right,False,2,1,6,ret,1,10,0,"['1', '4', '3', '4', '4', '3']","[40.55777569999918, 41.02892399998382, 44.90900220000185, 44.98899230000097, 47.901038899988635, 48.06896559998859]",3,6,# # # # # #,None,40.55777569999918,41.02892399998382,44.90900220000185,44.98899230000097,47.901038899988635,48.06896559998859,4.756712000002153,0.4711482999846339,3.8800782000180334,0.07999009999912232,2.9120465999876615,0.1679266999999527
72,8,0.0,3,False,0.0,None,right,False,2,1,0,enc,0,0,1,[],[],3,6,1 2 2 4 4 3,6,0.0,0.0,0.0,0.0,0.0,0.0,0,0.0,0.0,0.0,0.0,0.0
73,9,1.3358827999909408,3,True,0.5,acc,right,True,2,1,5,ret,1,5,1,"['1', '2', '2', '4', '3', '3']","[54.300975899997866, 54.60575349998544, 54.86155209998833, 55.14907109999331, 55.42900929998723, 55.63685869998881]",3,6,# # # # # #,None,54.300975899997866,54.60575349998544,54.86155209998833,55.14907109999331,55.42900929998723,55.63685869998881,-0.2679896999907214,0.3047775999875739,0.25579860000289045,0.287519000004977,0.27993819999392144,0.20784940000157803
74,10,0.0,2,False,0.0,None,right,False,2,1,0,enc,0,0,0,[],[],3,6,4 4 3 2 3 3,4,0.0,0.0,0.0,0.0,0.0,0.0,0,0.0,0.0,0.0,0.0,0.0
75,11,5.238592099980451,2,True,0.5,acc,right,False,2,1,6,ret,1,10,0,"['3', '3', '2', '3', '4', '4']","[64.80635400000028, 65.04498069998226, 69.28505710000172, 69.59698599998956, 69.84481069998583, 70.04494609998073]",3,6,# # # # # #,None,64.80635400000028,65.04498069998226,69.28505710000172,69.59698599998956,69.84481069998583,70.04494609998073,2.6694953000114765,0.23862669998197816,4.240076400019461,0.3119288999878336,0.2478246999962721,0.20013539999490604
76,12,0.0,3,False,0.0,None,right,False,2,1,0,enc,0,0,0,[],[],3,6,2 4 3 2 2 4,6,0.0,0.0,0.0,0.0,0.0,0.0,0,0.0,0.0,0.0,0.0,0.0
77,13,6.8955139000026975,3,True,0.5,acc,right,True,2,1,3,ret,1,3,0,"['4', '2', '2', '2', '3', '3']","[78.47752529999707, 78.92498559999513, 79.21382639999501, 84.68494599999394, 85.12494919999153, 85.37303919999977]",3,6,# # # # # #,None,78.47752529999707,78.92498559999513,79.21382639999501,84.68494599999394,85.12494919999153,85.37303919999977,1.9325792000163347,0.44746029999805614,0.288840799999889,5.471119599998929,0.44000319999759085,0.2480900000082329
78,14,0.0,2,False,0.0,None,right,False,2,1,0,enc,0,0,0,[],[],3,6,2 3 4 4 1 2,4,0.0,0.0,0.0,0.0,0.0,0.0,0,0.0,0.0,0.0,0.0,0.0
79,15,9.383947000023907,2,True,0.5,acc,right,True,2,1,5,ret,1,5,0,"['2', '2', '4', '4', '3', '2']","[98.90101089997916, 100.10088250000263, 104.18900849999045, 106.17297559999861, 107.25289380000322, 108.28495790000306]",3,6,# # # # # #,None,98.90101089997916,100.10088250000263,104.18900849999045,106.17297559999861,107.25289380000322,108.28495790000306,7.027971699979389,1.1998716000234708,4.088125999987824,1.983967100008158,1.079918200004613,1.0320640999998432
80,16,0.0,3,False,0.0,None,right,False,2,1,0,enc,0,0,1,[],[],3,6,2 1 1 2 4 1,6,0.0,0.0,0.0,0.0,0.0,0.0,0,0.0,0.0,0.0,0.0,0.0
81,17,1.3839991000131704,3,True,0.5,acc,right,False,2,1,6,ret,1,10,1,"['2', '1', '1', '2', '4', '1']","[114.59695929998998, 114.94883059998392, 115.18096489997697, 115.48492960000294, 115.74908569999388, 115.98095840000315]",3,6,# # # # # #,None,114.59695929998998,114.94883059998392,115.18096489997697,115.48492960000294,115.74908569999388,115.98095840000315,-0.18799860001308843,0.3518712999939453,0.23213429999304935,0.303964700025972,0.2641560999909416,0.2318727000092622
82,18,0.0,3,False,0.0,None,right,False,2,1,0,enc,0,0,0,[],[],3,6,3 2 1 1 3 2,6,0.0,0.0,0.0,0.0,0.0,0.0,0,0.0,0.0,0.0,0.0,0.0
83,19,4.5279811000218615,3,True,0.5,acc,right,True,2,1,4,ret,1,4,0,"['2', '3', '1', '1', '3', '2']","[125.54095909997704, 125.83699779998278, 126.1809316999861, 129.4688591999875, 129.8449924000015, 130.0689401999989]",3,6,# # # # # #,None,125.54095909997704,125.83699779998278,126.1809316999861,129.4688591999875,129.8449924000015,130.0689401999989,3.060000699973898,0.29603870000573806,0.34393390000332147,3.2879275000013877,0.37613320001401007,0.22394779999740422
84,20,0.0,2,False,0.0,None,right,False,2,1,0,enc,0,0,1,[],[],3,6,1 4 1 4 2 1,4,0.0,0.0,0.0,0.0,0.0,0.0,0,0.0,0.0,0.0,0.0,0.0
85,21,1.631983900006162,2,True,0.5,acc,right,False,2,1,6,ret,1,10,1,"['1', '4', '1', '4', '2', '1']","[138.5809797999973, 138.97292810000363, 139.27691980000236, 139.62097799999174, 139.94900979998056, 140.21296370000346]",3,6,# # # # # #,None,138.5809797999973,138.97292810000363,139.27691980000236,139.62097799999174,139.94900979998056,140.21296370000346,2.0120395999983884,0.39194830000633374,0.30399169999873266,0.3440581999893766,0.32803179998882115,0.26395390002289787
86,22,0.0,2,False,0.0,None,right,False,2,1,0,enc,0,0,1,[],[],3,6,1 3 2 1 1 3,4,0.0,0.0,0.0,0.0,0.0,0.0,0,0.0,0.0,0.0,0.0,0.0
87,23,1.407988099992508,2,True,0.5,acc,right,False,2,1,6,ret,1,10,1,"['1', '3', '2', '1', '1', '3']","[148.93294679999235, 149.25288489999366, 149.54131380000035, 149.78898499999195, 150.12500020000152, 150.34093489998486]",3,6,# # # # # #,None,148.93294679999235,149.25288489999366,149.54131380000035,149.78898499999195,150.12500020000152,150.34093489998486,2.2199830999888945,0.31993810000130907,0.28842890000669286,0.2476711999916006,0.3360152000095695,0.21593469998333603
88,0,0.0,2,False,0.0,None,right,False,2,1,0,enc,0,0,1,[],[],4,6,4 4 1 3 2 2,4,0.0,0.0,0.0,0.0,0.0,0.0,0,0.0,0.0,0.0,0.0,0.0
89,1,1.3199287999887022,2,True,0.5,acc,right,False,2,1,6,ret,1,10,1,"['4', '4', '1', '3', '2', '2']","[6.671109300019452, 6.9511639999982435, 7.231169700011378, 7.487038300023414, 7.815162200015038, 7.991038100008154]",4,6,# # # # # #,None,6.671109300019452,6.9511639999982435,7.231169700011378,7.487038300023414,7.815162200015038,7.991038100008154,NaN,0.2800546999787912,0.28000570001313463,0.25586860001203604,0.32812389999162406,0.17587589999311604
90,2,0.0,2,False,0.0,None,right,False,2,1,0,enc,0,0,0,[],[],4,6,3 2 1 3 4 3,4,0.0,0.0,0.0,0.0,0.0,0.0,0,0.0,0.0,0.0,0.0,0.0
91,3,3.343835300009232,2,True,0.5,acc,right,True,2,1,3,ret,1,3,0,"['3', '4', '2', '2', '2', '2']","[19.215204100008123, 19.623105200007558, 20.575127800024347, 20.902961400017375, 22.303116499999305, 22.559039400017355]",4,6,# # # # # #,None,19.215204100008123,19.623105200007558,20.575127800024347,20.902961400017375,22.303116499999305,22.559039400017355,4.724165999999968,0.40790109999943525,0.9520226000167895,0.32783359999302775,1.40015509998193,0.2559229000180494
92,4,0.0,3,False,0.0,None,right,False,2,1,0,enc,0,0,0,[],[],4,6,2 3 2 3 1 2,6,0.0,0.0,0.0,0.0,0.0,0.0,0,0.0,0.0,0.0,0.0,0.0
93,5,5.111975799984067,3,True,0.5,acc,right,False,2,1,6,ret,1,10,0,"['2', '1', '3', '2', '3', '2']","[31.375213600025745, 31.60708430001978, 31.855107400013367, 35.92710070000612, 36.20715280002332, 36.48718940000981]",4,6,# # # # # #,None,31.375213600025745,31.60708430001978,31.855107400013367,35.92710070000612,36.20715280002332,36.48718940000981,2.3161742000083905,0.2318706999940332,0.2480230999935884,4.071993299992755,0.28005210001720116,0.280036599986488
94,6,0.0,3,False,0.0,None,right,False,2,1,0,enc,0,0,1,[],[],4,6,4 4 4 2 2 1,6,0.0,0.0,0.0,0.0,0.0,0.0,0,0.0,0.0,0.0,0.0,0.0
95,7,2.137332600017544,3,True,0.5,acc,right,True,2,1,5,ret,1,5,1,"['4', '3', '4', '2', '2', '1']","[43.42313330000616, 43.911044400010724, 44.37510150001617, 45.03122260002419, 45.35113740002271, 45.5604659000237]",4,6,# # # # # #,None,43.42313330000616,43.911044400010724,44.37510150001617,45.03122260002419,45.35113740002271,45.5604659000237,0.43594389999634586,0.48791110000456683,0.46405710000544786,0.656121100008022,0.31991479999851435,0.2093285000009928
96,8,0.0,2,False,0.0,None,right,False,2,1,0,enc,0,0,1,[],[],4,6,3 1 4 3 4 1,4,0.0,0.0,0.0,0.0,0.0,0.0,0,0.0,0.0,0.0,0.0,0.0
97,9,2.815912099991692,2,True,0.5,acc,right,True,2,1,5,ret,1,5,1,"['3', '1', '4', '3', '3', '1']","[54.719137800013414, 55.09507900002063, 55.463054799998645, 55.855094700003974, 56.85507640001015, 57.535049900005106]",4,6,# # # # # #,None,54.719137800013414,55.09507900002063,55.463054799998645,55.855094700003974,56.85507640001015,57.535049900005106,2.658671899989713,0.37594120000721887,0.3679757999780122,0.3920399000053294,0.9999817000061739,0.6799734999949578
98,10,0.0,3,False,0.0,None,right,False,2,1,0,enc,0,0,1,[],[],4,6,3 1 4 2 4 3,6,0.0,0.0,0.0,0.0,0.0,0.0,0,0.0,0.0,0.0,0.0,0.0
99,11,3.2080387000169126,3,True,0.5,acc,right,True,2,1,4,ret,1,4,1,"['3', '1', '4', '4', '1', '3']","[64.5270726000017, 65.11106390002533, 65.38302649999969, 66.66289570002118, 67.0871103000245, 67.73511130001862]",4,6,# # # # # #,None,64.5270726000017,65.11106390002533,65.38302649999969,66.66289570002118,67.0871103000245,67.73511130001862,0.4920226999965962,0.5839913000236265,0.27196259997435845,1.2798692000214942,0.42421460000332445,0.6480009999941103
100,12,0.0,2,False,0.0,None,right,False,2,1,0,enc,0,0,0,[],[],4,6,2 1 4 1 4 4,4,0.0,0.0,0.0,0.0,0.0,0.0,0,0.0,0.0,0.0,0.0,0.0
101,13,8.896087400004035,2,True,0.5,acc,right,False,2,1,6,ret,1,10,0,"['4', '4', '1', '4', '1', '2']","[76.76705910000601, 77.01502030002302, 82.86309480000637, 83.27907320001395, 85.49516160000348, 85.66314650001004]",4,6,# # # # # #,None,76.76705910000601,77.01502030002302,82.86309480000637,83.27907320001395,85.49516160000348,85.66314650001004,2.5319477999873925,0.24796120001701638,5.8480744999833405,0.4159784000075888,2.2160883999895304,0.16798490000655875
102,14,0.0,3,False,0.0,None,right,False,2,1,0,enc,0,0,0,[],[],4,6,4 4 4 2 2 3,6,0.0,0.0,0.0,0.0,0.0,0.0,0,0.0,0.0,0.0,0.0,0.0
103,15,3.41603860000032,3,True,0.5,acc,right,True,2,1,5,ret,1,5,0,"['3', '2', '2', '4', '4', '1']","[93.03106420001131, 93.36699720000615, 93.65499560002354, 95.72775210000691, 96.11909890000243, 96.44710280001163]",4,6,# # # # # #,None,93.03106420001131,93.36699720000615,93.65499560002354,95.72775210000691,96.11909890000243,96.44710280001163,0.8679177000012714,0.3359329999948386,0.2879984000173863,2.0727564999833703,0.39134679999551736,0.3280039000092074
104,16,0.0,2,False,0.0,None,right,False,2,1,0,enc,0,0,1,[],[],4,6,4 2 3 2 4 3,4,0.0,0.0,0.0,0.0,0.0,0.0,0,0.0,0.0,0.0,0.0,0.0
105,17,2.111924500000896,2,True,0.5,acc,right,False,2,1,6,ret,1,10,1,"['4', '2', '3', '2', '4', '3']","[105.56705880002119, 105.87107550000655, 106.13494220000575, 106.40695120001328, 107.31098070001462, 107.67898330002208]",4,6,# # # # # #,None,105.56705880002119,105.87107550000655,106.13494220000575,106.40695120001328,107.31098070001462,107.67898330002208,2.6199560000095516,0.3040166999853682,0.2638666999991983,0.2720090000075288,0.904029500001343,0.36800260000745766
106,18,0.0,2,False,0.0,None,right,False,2,1,0,enc,0,0,0,[],[],4,6,4 4 2 3 3 4,4,0.0,0.0,0.0,0.0,0.0,0.0,0,0.0,0.0,0.0,0.0,0.0
107,19,5.9120376000064425,2,True,0.5,acc,right,False,2,1,6,ret,1,10,0,"['4', '3', '3', '2', '4', '4']","[117.63095360001898, 118.28703470001346, 120.36689160001697, 120.74300760001643, 123.21503280001343, 123.54299120002543]",4,6,# # # # # #,None,117.63095360001898,118.28703470001346,120.36689160001697,120.74300760001643,123.21503280001343,123.54299120002543,3.4519702999969013,0.6560810999944806,2.079856900003506,0.3761159999994561,2.472025199997006,0.32795840001199394
108,20,0.0,3,False,0.0,None,right,False,2,1,0,enc,0,0,1,[],[],4,6,3 3 3 1 1 2,6,0.0,0.0,0.0,0.0,0.0,0.0,0,0.0,0.0,0.0,0.0,0.0
109,21,1.5442768999782857,3,True,0.5,acc,right,False,2,1,6,ret,1,10,1,"['3', '3', '3', '1', '1', '2']","[129.68681510002352, 129.90304350000224, 130.1189727000019, 130.9030004000233, 131.07898420002311, 131.2310920000018]",4,6,# # # # # #,None,129.68681510002352,129.90304350000224,130.1189727000019,130.9030004000233,131.07898420002311,131.2310920000018,-0.35617610000190325,0.2162283999787178,0.21592919999966398,0.7840277000213973,0.17598379999981262,0.15210779997869395
110,22,0.0,3,False,0.0,None,right,False,2,1,0,enc,0,0,0,[],[],4,6,1 4 3 2 2 1,6,0.0,0.0,0.0,0.0,0.0,0.0,0,0.0,0.0,0.0,0.0,0.0
111,23,3.960467800003244,3,True,0.5,acc,right,True,2,1,4,ret,1,4,0,"['1', '2', '2', '3', '1', '4']","[138.76697330002207, 139.08682460000273, 139.3029486000014, 142.27101060000132, 142.5269421999983, 142.72744110002532]",4,6,# # # # # #,None,138.76697330002207,139.08682460000273,139.3029486000014,142.27101060000132,142.5269421999983,142.72744110002532,1.0358813000202645,0.3198512999806553,0.21612399999867193,2.968061999999918,0.255931599996984,0.20049890002701432
112,0,0.0,3,False,0.0,None,right,False,2,1,0,enc,0,0,1,[],[],5,6,4 3 1 1 1 1,6,0.0,0.0,0.0,0.0,0.0,0.0,0,0.0,0.0,0.0,0.0,0.0
113,1,1.0881040999956897,3,True,0.5,acc,right,False,2,1,6,ret,1,10,1,"['4', '3', '1', '1', '1', '1']","[5.591303200024413, 5.815247300022747, 6.031494800001383, 6.3273774000117555, 6.496084600017639, 6.679407300020102]",5,6,# # # # # #,None,5.591303200024413,5.815247300022747,6.031494800001383,6.3273774000117555,6.496084600017639,6.679407300020102,NaN,0.22394409999833442,0.21624749997863546,0.2958826000103727,0.16870720000588335,0.18332270000246353
114,2,0.0,3,False,0.0,None,right,False,2,1,0,enc,0,0,1,[],[],5,6,2 4 2 3 2 4,6,0.0,0.0,0.0,0.0,0.0,0.0,0,0.0,0.0,0.0,0.0,0.0
115,3,1.511990600003628,3,True,0.5,acc,right,False,2,1,6,ret,1,10,1,"['2', '4', '2', '3', '2', '4']","[13.72731390001718, 13.935278999997536, 14.151151500002015, 14.775338200008264, 15.039409999997588, 15.239304500020808]",5,6,# # # # # #,None,13.72731390001718,13.935278999997536,14.151151500002015,14.775338200008264,15.039409999997588,15.239304500020808,0.5479065999970771,0.20796509998035617,0.21587250000447966,0.6241867000062484,0.26407179998932406,0.19989450002321973
116,4,0.0,2,False,0.0,None,right,False,2,1,0,enc,0,0,1,[],[],5,6,4 3 3 2 2 2,4,0.0,0.0,0.0,0.0,0.0,0.0,0,0.0,0.0,0.0,0.0,0.0
117,5,1.3840628000034485,2,True,0.5,acc,right,False,2,1,6,ret,1,10,1,"['4', '3', '3', '2', '2', '2']","[24.159450200007996, 24.543248600006336, 24.81566140000359, 25.08742340002209, 25.34345330001088, 25.543513000011444]",5,6,# # # # # #,None,24.159450200007996,24.543248600006336,24.81566140000359,25.08742340002209,25.34345330001088,25.543513000011444,2.420145699987188,0.38379839999834076,0.2724127999972552,0.27176200001849793,0.2560298999887891,0.2000597000005655
118,6,0.0,2,False,0.0,None,right,False,2,1,0,enc,0,0,1,[],[],5,6,2 3 1 3 2 3,4,0.0,0.0,0.0,0.0,0.0,0.0,0,0.0,0.0,0.0,0.0,0.0
119,7,1.1118610000121407,2,True,0.5,acc,right,False,2,1,6,ret,1,10,1,"['2', '3', '1', '3', '2', '3']","[34.27139710000483, 34.527121699997224, 34.78328110001166, 34.99918740001158, 35.21531590001541, 35.383258100016974]",5,6,# # # # # #,None,34.27139710000483,34.527121699997224,34.78328110001166,34.99918740001158,35.21531590001541,35.383258100016974,2.227884099993389,0.2557245999923907,0.2561594000144396,0.21590629999991506,0.21612850000383332,0.16794220000156201
120,8,0.0,2,False,0.0,None,right,False,2,1,0,enc,0,0,0,[],[],5,6,3 2 3 1 3 4,4,0.0,0.0,0.0,0.0,0.0,0.0,0,0.0,0.0,0.0,0.0,0.0
121,9,7.487915999983669,2,True,0.5,acc,right,True,2,1,3,ret,1,3,0,"['4', '3', '1', '2', '3', '2']","[44.71939830001793, 45.16726610000478, 48.19128090000595, 48.55928880002466, 52.0232802000246, 52.2073143000016]",5,6,# # # # # #,None,44.71939830001793,45.16726610000478,48.19128090000595,48.55928880002466,52.0232802000246,52.2073143000016,2.836140200000955,0.44786779998685233,3.0240148000011686,0.36800790001871064,3.4639913999999408,0.18403409997699782
122,10,0.0,3,False,0.0,None,right,False,2,1,0,enc,0,0,0,[],[],5,6,1 3 1 4 1 1,6,0.0,0.0,0.0,0.0,0.0,0.0,0,0.0,0.0,0.0,0.0,0.0
123,11,3.711829999985639,3,True,0.5,acc,right,False,2,1,6,ret,1,10,0,"['1', '1', '4', '1', '3', '1']","[60.119358000025386, 60.41525520000141, 60.64719600000535, 63.49625950001064, 63.67968610001844, 63.831188000011025]",5,6,# # # # # #,None,60.119358000025386,60.41525520000141,60.64719600000535,63.49625950001064,63.67968610001844,63.831188000011025,1.412043700023787,0.29589719997602515,0.23194080000394024,2.849063500005286,0.18342660000780597,0.15150189999258146
124,12,0.0,3,False,0.0,None,right,False,2,1,0,enc,0,0,0,[],[],5,6,3 3 4 4 1 1,6,0.0,0.0,0.0,0.0,0.0,0.0,0,0.0,0.0,0.0,0.0,0.0
125,13,2.8080348999938,3,True,0.5,acc,right,True,2,1,5,ret,1,5,0,"['1', '1', '4', '1', '3', '3']","[72.2631658000173, 72.47132310000597, 72.70327330002328, 74.61522000000696, 74.9111957999994, 75.0712007000111]",5,6,# # # # # #,None,72.2631658000173,72.47132310000597,72.70327330002328,74.61522000000696,74.9111957999994,75.0712007000111,1.9319778000062797,0.20815729998867027,0.23195020001730882,1.9119466999836732,0.2959757999924477,0.16000490001169965
126,14,0.0,2,False,0.0,None,right,False,2,1,0,enc,0,0,0,[],[],5,6,1 4 1 2 4 4,4,0.0,0.0,0.0,0.0,0.0,0.0,0,0.0,0.0,0.0,0.0,0.0
127,15,6.671858300018357,2,True,0.5,acc,right,True,2,1,4,ret,1,4,0,"['4', '4', '2', '1', '1', '3']","[84.27921750000678, 84.58330680002109, 87.3031667000032, 87.6552948000026, 90.41523340001004, 90.95107580002514]",5,6,# # # # # #,None,84.27921750000678,84.58330680002109,87.3031667000032,87.6552948000026,90.41523340001004,90.95107580002514,2.7080167999956757,0.30408930001431145,2.7198598999821115,0.35212809999939054,2.7599386000074446,0.535842400015099
128,16,0.0,2,False,0.0,None,right,False,2,1,0,enc,0,0,1,[],[],5,6,1 2 2 1 4 2,4,0.0,0.0,0.0,0.0,0.0,0.0,0,0.0,0.0,0.0,0.0,0.0
129,17,2.6239157000090927,2,True,0.5,acc,right,True,2,1,4,ret,1,4,1,"['1', '2', '4', '1', '1', '2']","[99.69528710001032, 99.95922750001773, 101.32720250001876, 101.59913960000267, 101.80732580000767, 102.31920280001941]",5,6,# # # # # #,None,99.69528710001032,99.95922750001773,101.32720250001876,101.59913960000267,101.80732580000767,102.31920280001941,2.2442112999851815,0.2639404000074137,1.3679750000010245,0.2719370999839157,0.20818620000500232,0.5118770000117365
130,18,0.0,3,False,0.0,None,right,False,2,1,0,enc,0,0,1,[],[],5,6,2 2 1 3 1 3,6,0.0,0.0,0.0,0.0,0.0,0.0,0,0.0,0.0,0.0,0.0,0.0
131,19,1.279946700000437,3,True,0.5,acc,right,False,2,1,6,ret,1,10,1,"['2', '2', '1', '3', '1', '3']","[108.999237800017, 109.175180500024, 109.39123020000989, 109.91129320001346, 110.11125250000623, 110.27918450001744]",5,6,# # # # # #,None,108.999237800017,109.175180500024,109.39123020000989,109.91129320001346,110.11125250000623,110.27918450001744,0.18003499999758787,0.17594270000699908,0.21604969998588786,0.5200630000035744,0.19995929999276996,0.16793200001120567
132,20,0.0,2,False,0.0,None,right,False,2,1,0,enc,0,0,0,[],[],5,6,3 4 2 3 1 4,4,0.0,0.0,0.0,0.0,0.0,0.0,0,0.0,0.0,0.0,0.0,0.0
133,21,9.535127599985572,2,True,0.5,acc,right,True,2,1,3,ret,1,3,0,"['4', '1', '3', '4', '2', '1']","[121.3520854000235, 121.76721810002346, 128.03912940001464, 128.36721090000356, 130.60714680000092, 130.88721300000907]",5,6,# # # # # #,None,121.3520854000235,121.76721810002346,128.03912940001464,128.36721090000356,130.60714680000092,130.88721300000907,4.572900900006061,0.4151326999999583,6.271911299991189,0.3280814999889117,2.239935899997363,0.2800662000081502
134,22,0.0,3,False,0.0,None,right,False,2,1,0,enc,0,0,0,[],[],5,6,2 3 3 3 4 2,6,0.0,0.0,0.0,0.0,0.0,0.0,0,0.0,0.0,0.0,0.0,0.0
135,23,3.0401171999983485,3,True,0.5,acc,right,False,2,1,6,ret,1,10,0,"['2', '4', '3', '3', '3', '2']","[139.5271779000177, 139.81524230001378, 140.10318960002041, 142.0312107000209, 142.29515400002128, 142.56729510001605]",5,6,# # # # # #,None,139.5271779000177,139.81524230001378,140.10318960002041,142.0312107000209,142.29515400002128,142.56729510001605,2.1399649000086356,0.2880643999960739,0.2879473000066355,1.9280211000004783,0.2639433000003919,0.2721410999947693
136,0,0.0,2,False,0.0,None,right,False,2,1,0,enc,0,0,1,[],[],6,6,2 3 1 1 2 3,4,0.0,0.0,0.0,0.0,0.0,0.0,0,0.0,0.0,0.0,0.0,0.0
137,1,0.8559601000160909,2,True,0.5,acc,right,True,2,1,4,ret,1,4,1,"['2', '3', '1', '1', '3', '2']","[6.849247499980265, 7.017225299990969, 7.281234299996868, 7.433191899996018, 7.609312199987471, 7.705207599996356]",6,6,# # # # # #,None,6.849247499980265,7.017225299990969,7.281234299996868,7.433191899996018,7.609312199987471,7.705207599996356,NaN,0.1679778000107035,0.264009000005899,0.15195759999915026,0.17612029999145307,0.09589540000888519
138,2,0.0,3,False,0.0,None,right,False,2,1,0,enc,0,0,1,[],[],6,6,2 3 3 4 2 2,6,0.0,0.0,0.0,0.0,0.0,0.0,0,0.0,0.0,0.0,0.0,0.0
139,3,1.2082642000168562,3,True,0.5,acc,right,False,2,1,6,ret,1,10,1,"['2', '3', '3', '4', '2', '2']","[14.265099299984286, 14.497241299977759, 14.689358099974925, 15.057273899990832, 15.289094799984014, 15.473363500001142]",6,6,# # # # # #,None,14.265099299984286,14.497241299977759,14.689358099974925,15.057273899990832,15.289094799984014,15.473363500001142,0.059891699987929314,0.2321419999934733,0.1921167999971658,0.36791580001590773,0.23182089999318123,0.18426870001712814
140,4,0.0,2,False,0.0,None,right,False,2,1,0,enc,0,0,0,[],[],6,6,3 1 2 4 4 4,4,0.0,0.0,0.0,0.0,0.0,0.0,0,0.0,0.0,0.0,0.0,0.0
141,5,5.607951999991201,2,True,0.5,acc,right,False,2,1,6,ret,1,10,0,"['4', '4', '4', '2', '1', '3']","[24.529310199985048, 24.737232299987227, 28.19337219998124, 28.449087099987082, 29.889277299982496, 30.13726219997625]",6,6,# # # # # #,None,24.529310199985048,24.737232299987227,28.19337219998124,28.449087099987082,29.889277299982496,30.13726219997625,2.555946699983906,0.20792210000217892,3.456139899994014,0.2557149000058416,1.4401901999954134,0.24798489999375306
142,6,0.0,3,False,0.0,None,right,False,2,1,0,enc,0,0,1,[],[],6,6,3 3 1 3 2 2,6,0.0,0.0,0.0,0.0,0.0,0.0,0,0.0,0.0,0.0,0.0,0.0
143,7,2.3199319999839645,3,True,0.5,acc,right,True,2,1,5,ret,1,5,1,"['3', '1', '1', '3', '2', '2']","[36.55326929999865, 36.97723479999695, 37.185156599996844, 38.433097799977986, 38.69726049999008, 38.87320129998261]",6,6,# # # # # #,None,36.55326929999865,36.97723479999695,37.185156599996844,38.433097799977986,38.69726049999008,38.87320129998261,-0.08399289997760206,0.42396549999830313,0.20792179999989457,1.2479411999811418,0.2641627000120934,0.17594079999253154
144,8,0.0,2,False,0.0,None,right,False,2,1,0,enc,0,0,1,[],[],6,6,1 2 2 2 4 1,4,0.0,0.0,0.0,0.0,0.0,0.0,0,0.0,0.0,0.0,0.0,0.0
145,9,1.8402062999957711,2,True,0.5,acc,right,False,2,1,6,ret,1,10,1,"['1', '2', '2', '2', '4', '1']","[48.249091799982125, 48.489180999982636, 48.82503169999109, 49.05716979998397, 49.833224499976495, 50.089298099977896]",6,6,# # # # # #,None,48.249091799982125,48.489180999982636,48.82503169999109,49.05716979998397,49.833224499976495,50.089298099977896,2.875890499999514,0.24008920000051148,0.3358507000084501,0.2321380999928806,0.7760546999925282,0.25607360000140034
146,10,0.0,3,False,0.0,None,right,False,2,1,0,enc,0,0,1,[],[],6,6,3 1 4 4 2 4,6,0.0,0.0,0.0,0.0,0.0,0.0,0,0.0,0.0,0.0,0.0,0.0
147,11,1.7839888000162318,3,True,0.5,acc,right,False,2,1,6,ret,1,10,1,"['3', '1', '4', '4', '2', '4']","[57.17727269997704, 57.473157999978866, 57.74520819997997, 58.34546039998531, 58.69718849999481, 58.96126149999327]",6,6,# # # # # #,None,57.17727269997704,57.473157999978866,57.74520819997997,58.34546039998531,58.69718849999481,58.96126149999327,0.5879745999991428,0.295885300001828,0.2720502000011038,0.6002522000053432,0.3517281000094954,0.26407299999846146
148,12,0.0,3,False,0.0,None,right,False,2,1,0,enc,0,0,0,[],[],6,6,3 4 1 3 4 2,6,0.0,0.0,0.0,0.0,0.0,0.0,0,0.0,0.0,0.0,0.0,0.0
149,13,6.919929700001376,3,True,0.5,acc,right,True,2,1,5,ret,1,5,0,"['2', '4', '3', '1', '1', '3']","[68.55328839999856, 71.92121719999705, 72.25728479999816, 74.86501749997842, 75.20120659997337, 75.47321809999994]",6,6,# # # # # #,None,68.55328839999856,71.92121719999705,72.25728479999816,74.86501749997842,75.20120659997337,75.47321809999994,3.092026900005294,3.367928799998481,0.33606760000111535,2.607732699980261,0.3361890999949537,0.27201150002656505
150,14,0.0,3,False,0.0,None,right,False,2,1,0,enc,0,0,0,[],[],6,6,1 2 1 3 1 1,6,0.0,0.0,0.0,0.0,0.0,0.0,0,0.0,0.0,0.0,0.0,0.0
151,15,5.511911499983399,3,True,0.5,acc,right,True,2,1,5,ret,1,5,0,"['1', '1', '3', '1', '3', '1']","[82.84929529999499, 83.09718789998442, 83.32909169999766, 87.72924580000108, 88.05721049997373, 88.36120679997839]",6,6,# # # # # #,None,82.84929529999499,83.09718789998442,83.32909169999766,87.72924580000108,88.05721049997373,88.36120679997839,0.8760771999950521,0.24789259998942725,0.2319038000132423,4.400154100003419,0.32796469997265376,0.3039963000046555
152,16,0.0,2,False,0.0,None,right,False,2,1,0,enc,0,0,1,[],[],6,6,2 1 4 3 3 2,4,0.0,0.0,0.0,0.0,0.0,0.0,0,0.0,0.0,0.0,0.0,0.0
153,17,3.5278744000243023,2,True,0.5,acc,right,False,2,1,6,ret,1,10,1,"['2', '1', '4', '3', '3', '2']","[96.91323749997537, 97.23326239999733, 97.59314219999942, 98.06525919999694, 100.04928649999783, 100.44111189999967]",6,6,# # # # # #,None,96.91323749997537,97.23326239999733,97.59314219999942,98.06525919999694,100.04928649999783,100.44111189999967,2.052030699996976,0.3200249000219628,0.35987980000209063,0.47211699999752454,1.9840273000008892,0.3918254000018351
154,18,0.0,2,False,0.0,None,right,False,2,1,0,enc,0,0,0,[],[],6,6,1 4 4 1 2 3,4,0.0,0.0,0.0,0.0,0.0,0.0,0,0.0,0.0,0.0,0.0,0.0
155,19,6.6480120999913215,2,True,0.5,acc,right,True,2,1,4,ret,1,4,0,"['2', '3', '1', '4', '4', '1']","[110.48114009998972, 110.80923069998971, 114.70520830000169, 115.58514429998468, 116.88906859999406, 117.12915219998104]",6,6,# # # # # #,None,110.48114009998972,110.80923069998971,114.70520830000169,115.58514429998468,116.88906859999406,117.12915219998104,3.540028199990047,0.3280905999999959,3.8959776000119746,0.8799359999829903,1.3039243000093848,0.24008359998697415
156,20,0.0,2,False,0.0,None,right,False,2,1,0,enc,0,0,0,[],[],6,6,2 1 2 3 4 4,4,0.0,0.0,0.0,0.0,0.0,0.0,0,0.0,0.0,0.0,0.0,0.0
157,21,5.383970299997599,2,True,0.5,acc,right,True,2,1,4,ret,1,4,0,"['4', '4', '3', '2', '2', '1']","[126.2091382999788, 126.42516379998415, 128.56915739999386, 128.88119269997696, 131.36107239997364, 131.5931085999764]",6,6,# # # # # #,None,126.2091382999788,126.42516379998415,128.56915739999386,128.88119269997696,131.36107239997364,131.5931085999764,2.579986099997768,0.21602550000534393,2.1439936000097077,0.3120352999831084,2.4798796999966726,0.23203620000276715
158,22,0.0,3,False,0.0,None,right,False,2,1,0,enc,0,0,0,[],[],6,6,3 1 3 4 2 3,6,0.0,0.0,0.0,0.0,0.0,0.0,0,0.0,0.0,0.0,0.0,0.0
159,23,4.312261800019768,3,True,0.5,acc,right,True,2,1,4,ret,1,4,0,"['3', '2', '4', '1', '1', '2']","[142.38517189997947, 142.76114059999236, 143.0970934999932, 146.07299359998433, 146.5769438999996, 146.69743369999924]",6,6,# # # # # #,None,142.38517189997947,142.76114059999236,143.0970934999932,146.07299359998433,146.5769438999996,146.69743369999924,4.292063300003065,0.3759687000128906,0.3359529000008479,2.9759000999911223,0.5039503000152763,0.12048979999963194
160,0,0.0,2,False,0.0,None,right,False,2,1,0,enc,0,0,1,[],[],7,6,2 4 4 2 1 3,4,0.0,0.0,0.0,0.0,0.0,0.0,0,0.0,0.0,0.0,0.0,0.0
161,1,2.775943499989808,2,True,0.5,acc,right,False,2,1,6,ret,1,10,1,"['2', '4', '4', '2', '1', '3']","[7.042267000011634, 7.3701477000140585, 9.02615550000337, 9.298211000015726, 9.61023020002176, 9.818210500001442]",7,6,# # # # # #,None,7.042267000011634,7.3701477000140585,9.02615550000337,9.298211000015726,9.61023020002176,9.818210500001442,NaN,0.3278807000024244,1.656007799989311,0.2720555000123568,0.3120192000060342,0.20798029997968115
162,2,0.0,3,False,0.0,None,right,False,2,1,0,enc,0,0,1,[],[],7,6,2 4 3 1 4 4,6,0.0,0.0,0.0,0.0,0.0,0.0,0,0.0,0.0,0.0,0.0,0.0
163,3,1.5279803999874275,3,True,0.5,acc,right,False,2,1,6,ret,1,10,1,"['2', '4', '3', '1', '4', '4']","[16.64216290001059, 16.970396799995797, 17.306184400018537, 17.65008140000282, 17.95406640000874, 18.170143299998017]",7,6,# # # # # #,None,16.64216290001059,16.970396799995797,17.306184400018537,17.65008140000282,17.95406640000874,18.170143299998017,0.3239524000091478,0.32823389998520724,0.33578760002274066,0.34389699998428114,0.3039850000059232,0.21607689998927526
164,4,0.0,3,False,0.0,None,right,False,2,1,0,enc,0,0,1,[],[],7,6,3 3 4 4 4 1,6,0.0,0.0,0.0,0.0,0.0,0.0,0,0.0,0.0,0.0,0.0,0.0
165,5,1.0159810000041034,3,True,0.5,acc,right,False,2,1,6,ret,1,10,1,"['3', '3', '4', '4', '4', '1']","[24.80229180000606, 24.986312399996677, 25.186191300017526, 25.466191700019408, 25.64222950002295, 25.818272800010163]",7,6,# # # # # #,None,24.80229180000606,24.986312399996677,25.186191300017526,25.466191700019408,25.64222950002295,25.818272800010163,0.1321485000080429,0.18402059999061748,0.19987890002084896,0.28000040000188164,0.17603780000354163,0.17604329998721369
166,6,0.0,2,False,0.0,None,right,False,2,1,0,enc,0,0,1,[],[],7,6,4 1 2 3 3 2,4,0.0,0.0,0.0,0.0,0.0,0.0,0,0.0,0.0,0.0,0.0,0.0
167,7,3.2479679999814834,2,True,0.5,acc,right,False,2,1,6,ret,1,10,1,"['4', '1', '2', '3', '3', '2']","[34.84216980001656, 35.41823250000016, 36.146118600008776, 36.554148299997905, 37.69819280001684, 38.09013779999805]",7,6,# # # # # #,None,34.84216980001656,35.41823250000016,36.146118600008776,36.554148299997905,37.69819280001684,38.09013779999805,2.5238970000064,0.5760626999835949,0.7278861000086181,0.40802969998912886,1.1440445000189357,0.3919449999812059
168,8,0.0,3,False,0.0,None,right,False,2,1,0,enc,0,0,0,[],[],7,6,3 4 2 1 2 2,6,0.0,0.0,0.0,0.0,0.0,0.0,0,0.0,0.0,0.0,0.0,0.0
169,9,3.3680975000024773,3,True,0.5,acc,right,False,2,1,6,ret,1,10,0,"['2', '2', '1', '2', '4', '3']","[45.57005800001207, 45.78606270000455, 46.01818959999946, 48.52213060000213, 48.731255599996075, 48.938155500014545]",7,6,# # # # # #,None,45.57005800001207,45.78606270000455,46.01818959999946,48.52213060000213,48.731255599996075,48.938155500014545,0.9799202000140212,0.21600469999248162,0.23212689999490976,2.503941000002669,0.2091249999939464,0.20689990001847036
170,10,0.0,2,False,0.0,None,right,False,2,1,0,enc,0,0,0,[],[],7,6,4 4 3 4 3 3,4,0.0,0.0,0.0,0.0,0.0,0.0,0,0.0,0.0,0.0,0.0,0.0
171,11,7.464056299999356,2,True,0.5,acc,right,True,2,1,3,ret,1,3,0,"['3', '3', '4', '4', '3', '3']","[57.86602899999707, 58.05019589999574, 63.74616560002323, 64.0421464999963, 64.87423919999856, 65.33008529999643]",7,6,# # # # # #,None,57.86602899999707,58.05019589999574,63.74616560002323,64.0421464999963,64.87423919999856,65.33008529999643,2.4278734999825247,0.1841668999986723,5.69596970002749,0.295980899973074,0.8320927000022493,0.4558460999978706
172,12,0.0,2,False,0.0,None,right,False,2,1,0,enc,0,0,0,[],[],7,6,4 1 4 1 4 2,4,0.0,0.0,0.0,0.0,0.0,0.0,0,0.0,0.0,0.0,0.0,0.0
173,13,4.384011200017993,2,True,0.5,acc,right,True,2,1,4,ret,1,4,0,"['2', '4', '4', '1', '1', '4']","[76.37014579999959, 77.3621431000065, 79.2181469000061, 79.51413830000092, 80.45012860000134, 80.75415700001759]",7,6,# # # # # #,None,76.37014579999959,77.3621431000065,79.2181469000061,79.51413830000092,80.45012860000134,80.75415700001759,4.540060500003165,0.9919973000069149,1.8560037999995984,0.2959913999948185,0.9359903000004124,0.3040284000162501
174,14,0.0,3,False,0.0,None,right,False,2,1,0,enc,0,0,1,[],[],7,6,2 1 4 3 1 2,6,0.0,0.0,0.0,0.0,0.0,0.0,0,0.0,0.0,0.0,0.0,0.0
175,15,2.8558406000083782,3,True,0.5,acc,right,False,2,1,6,ret,1,10,1,"['2', '1', '4', '3', '1', '2']","[87.67421170001035, 87.96209000001545, 88.37813270001789, 90.114269600017, 90.37010810000356, 90.53005230001872]",7,6,# # # # # #,None,87.67421170001035,87.96209000001545,88.37813270001789,90.114269600017,90.37010810000356,90.53005230001872,0.420054699992761,0.2878783000051044,0.4160427000024356,1.73613689999911,0.2558384999865666,0.1599442000151612
176,16,0.0,2,False,0.0,None,right,False,2,1,0,enc,0,0,0,[],[],7,6,4 4 4 2 4 2,4,0.0,0.0,0.0,0.0,0.0,0.0,0,0.0,0.0,0.0,0.0,0.0
177,17,1.2959466000029352,2,True,0.5,acc,right,False,2,1,6,ret,1,10,0,"['2', '4', '2', '4', '4', '4']","[99.21016380001674, 99.48224890002166, 99.75411619999795, 100.00229720000061, 100.31406500001322, 100.50611040001968]",7,6,# # # # # #,None,99.21016380001674,99.48224890002166,99.75411619999795,100.00229720000061,100.31406500001322,100.50611040001968,2.18011149999802,0.27208510000491515,0.271867299976293,0.24818100000265986,0.3117678000126034,0.19204540000646375
178,18,0.0,3,False,0.0,None,right,False,2,1,0,enc,0,0,0,[],[],7,6,3 1 4 4 2 4,6,0.0,0.0,0.0,0.0,0.0,0.0,0,0.0,0.0,0.0,0.0,0.0
179,19,4.94407160000992,3,True,0.5,acc,right,False,2,1,6,ret,1,10,0,"['4', '2', '4', '4', '1', '3']","[107.98597619999782, 108.56203749999986, 108.79414060001727, 111.74607270001434, 112.57806940001319, 112.93004780000774]",7,6,# # # # # #,None,107.98597619999782,108.56203749999986,108.79414060001727,111.74607270001434,112.57806940001319,112.93004780000774,0.9798657999781426,0.5760613000020385,0.23210310001741163,2.951932099997066,0.8319966999988537,0.3519783999945503
180,20,0.0,3,False,0.0,None,right,False,2,1,0,enc,0,0,0,[],[],7,6,1 4 2 2 3 4,6,0.0,0.0,0.0,0.0,0.0,0.0,0,0.0,0.0,0.0,0.0,0.0
181,21,6.335885499982396,3,True,0.5,acc,right,True,2,1,1,ret,1,1,0,"['4', '2', '3', '4', '1', '3']","[120.67420890001813, 121.2900673999975, 121.67390039999736, 126.12202720000641, 126.47406940002111, 127.01009440000053]",7,6,# # # # # #,None,120.67420890001813,121.2900673999975,121.67390039999736,126.12202720000641,126.47406940002111,127.01009440000053,1.2441611000103876,0.6158584999793675,0.38383299999986775,4.4481268000090495,0.35204220001469366,0.5360249999794178
182,22,0.0,2,False,0.0,None,right,False,2,1,0,enc,0,0,1,[],[],7,6,1 1 2 1 1 3,4,0.0,0.0,0.0,0.0,0.0,0.0,0,0.0,0.0,0.0,0.0,0.0
183,23,1.7202014999929816,2,True,0.5,acc,right,False,2,1,6,ret,1,10,1,"['1', '1', '2', '1', '1', '3']","[136.04191430000355, 136.33799040000304, 136.8180295000202, 137.16987500002142, 137.49011220000102, 137.76211579999654]",7,6,# # # # # #,None,136.04191430000355,136.33799040000304,136.8180295000202,137.16987500002142,137.49011220000102,137.76211579999654,2.531819900003029,0.2960760999994818,0.48003910001716577,0.35184550000121817,0.32023719997960143,0.2720035999955144
184,0,0.0,2,False,0.0,None,right,False,2,1,0,enc,0,0,1,[],[],8,6,4 2 3 2 2 2,4,0.0,0.0,0.0,0.0,0.0,0.0,0,0.0,0.0,0.0,0.0,0.0
185,1,1.6158810000051744,2,True,0.5,acc,right,True,2,1,5,ret,1,5,1,"['4', '3', '3', '2', '2', '2']","[7.4385092000011355, 7.82237310000346, 8.174283000000287, 8.526414899999509, 8.902426399989054, 9.05439020000631]",8,6,# # # # # #,None,7.4385092000011355,7.82237310000346,8.174283000000287,8.526414899999509,8.902426399989054,9.05439020000631,NaN,0.38386390000232495,0.3519098999968264,0.3521318999992218,0.376011499989545,0.1519638000172563
186,2,0.0,2,False,0.0,None,right,False,2,1,0,enc,0,0,1,[],[],8,6,1 1 1 3 1 4,4,0.0,0.0,0.0,0.0,0.0,0.0,0,0.0,0.0,0.0,0.0,0.0
187,3,1.4560679999995043,2,True,0.5,acc,right,False,2,1,6,ret,1,10,1,"['1', '1', '1', '3', '1', '4']","[17.822362399980193, 18.030306900007417, 18.21436929999618, 18.422384799981955, 19.134331999986898, 19.278430399979698]",8,6,# # # # # #,None,17.822362399980193,18.030306900007417,18.21436929999618,18.422384799981955,19.134331999986898,19.278430399979698,2.267972199973883,0.20794450002722442,0.18406239998876117,0.20801549998577684,0.7119472000049427,0.1440983999927994
188,4,0.0,2,False,0.0,None,right,False,2,1,0,enc,0,0,0,[],[],8,6,2 1 2 1 3 4,4,0.0,0.0,0.0,0.0,0.0,0.0,0,0.0,0.0,0.0,0.0,0.0
189,5,1.8397417000087444,2,True,0.5,acc,right,True,2,1,4,ret,1,4,0,"['4', '3', '2', '1', '1', '2']","[29.1023942999891, 29.41451380000217, 29.862229299993487, 30.126329599996097, 30.766337299981387, 30.942135999997845]",8,6,# # # # # #,None,29.1023942999891,29.41451380000217,29.862229299993487,30.126329599996097,30.766337299981387,30.942135999997845,3.323963900009403,0.3121195000130683,0.4477154999913182,0.2641003000026103,0.64000769998529,0.1757987000164576
190,6,0.0,2,False,0.0,None,right,False,2,1,0,enc,0,0,1,[],[],8,6,1 3 1 4 2 3,4,0.0,0.0,0.0,0.0,0.0,0.0,0,0.0,0.0,0.0,0.0,0.0
191,7,1.5758065999834798,2,True,0.5,acc,right,False,2,1,6,ret,1,10,1,"['1', '3', '1', '4', '2', '3']","[39.74247500000638, 39.99831549997907, 40.29429719998734, 40.83040879998589, 41.1101861000061, 41.31828159998986]",8,6,# # # # # #,None,39.74247500000638,39.99831549997907,40.29429719998734,40.83040879998589,41.1101861000061,41.31828159998986,2.3003390000085346,0.25584049997269176,0.2959817000082694,0.5361115999985486,0.27977730002021417,0.20809549998375587
192,8,0.0,3,False,0.0,None,right,False,2,1,0,enc,0,0,1,[],[],8,6,1 4 3 3 2 2,6,0.0,0.0,0.0,0.0,0.0,0.0,0,0.0,0.0,0.0,0.0,0.0
193,9,1.3681391999998596,3,True,0.5,acc,right,False,2,1,6,ret,1,10,1,"['1', '4', '3', '3', '2', '2']","[48.23833319998812, 48.534336999990046, 48.85432349998155, 49.206296499993186, 49.4542131999915, 49.60647239998798]",8,6,# # # # # #,None,48.23833319998812,48.534336999990046,48.85432349998155,49.206296499993186,49.4542131999915,49.60647239998798,0.4200515999982599,0.2960038000019267,0.31998649999150075,0.35197300001163967,0.24791669999831356,0.15225919999647886
194,10,0.0,2,False,0.0,None,right,False,2,1,0,enc,0,0,0,[],[],8,6,4 3 3 4 4 1,4,0.0,0.0,0.0,0.0,0.0,0.0,0,0.0,0.0,0.0,0.0,0.0
195,11,5.703907899995102,2,True,0.5,acc,right,False,2,1,6,ret,1,10,0,"['1', '4', '4', '3', '3', '4']","[59.382414199993946, 59.75823089998448, 62.550317099987296, 63.398348899994744, 64.86231729999417, 65.08632209998905]",8,6,# # # # # #,None,59.382414199993946,59.75823089998448,62.550317099987296,63.398348899994744,64.86231729999417,65.08632209998905,3.275941800005967,0.375816699990537,2.7920862000028137,0.8480318000074476,1.4639683999994304,0.22400479999487288
196,12,0.0,2,False,0.0,None,right,False,2,1,0,enc,0,0,0,[],[],8,6,3 1 3 2 4 2,4,0.0,0.0,0.0,0.0,0.0,0.0,0,0.0,0.0,0.0,0.0,0.0
197,13,5.568339300021762,2,True,0.5,acc,right,True,2,1,3,ret,1,3,0,"['2', '4', '4', '3', '3', '2']","[74.96627059997991, 75.31024769999203, 79.02225929999258, 79.39028379999218, 79.9022425999865, 80.53460990000167]",8,6,# # # # # #,None,74.96627059997991,75.31024769999203,79.02225929999258,79.39028379999218,79.9022425999865,80.53460990000167,3.37994849999086,0.34397710001212545,3.712011600000551,0.3680244999995921,0.5119587999943178,0.6323673000151757
198,14,0.0,3,False,0.0,None,right,False,2,1,0,enc,0,0,1,[],[],8,6,1 3 2 3 3 3,6,0.0,0.0,0.0,0.0,0.0,0.0,0,0.0,0.0,0.0,0.0,0.0
199,15,0.9917996000149288,3,True,0.5,acc,right,False,2,1,6,ret,1,10,1,"['1', '3', '2', '3', '3', '3']","[87.38243929998134, 87.59834100000444, 87.80645099998219, 88.02348989999155, 88.2063075999904, 88.37423889999627]",8,6,# # # # # #,None,87.38243929998134,87.59834100000444,87.80645099998219,88.02348989999155,88.2063075999904,88.37423889999627,0.3478293999796733,0.21590170002309605,0.2081099999777507,0.21703890000935644,0.18281769999885,0.16793130000587553
200,16,0.0,3,False,0.0,None,right,False,2,1,0,enc,0,0,1,[],[],8,6,4 2 4 4 2 4,6,0.0,0.0,0.0,0.0,0.0,0.0,0,0.0,0.0,0.0,0.0,0.0
201,17,1.3439259000006132,3,True,0.5,acc,right,False,2,1,6,ret,1,10,1,"['4', '2', '4', '4', '2', '4']","[95.64636499999324, 95.91020690000732, 96.3182612999808, 96.64623569999821, 96.82223900000099, 96.99029089999385]",8,6,# # # # # #,None,95.64636499999324,95.91020690000732,96.3182612999808,96.64623569999821,96.82223900000099,96.99029089999385,0.7721260999969672,0.2638419000140857,0.40805439997348003,0.3279744000174105,0.1760033000027761,0.16805189999286085
202,18,0.0,3,False,0.0,None,right,False,2,1,0,enc,0,0,0,[],[],8,6,1 2 2 3 1 1,6,0.0,0.0,0.0,0.0,0.0,0.0,0,0.0,0.0,0.0,0.0,0.0
203,19,2.407955700007733,3,True,0.5,acc,right,True,2,1,5,ret,1,5,0,"['1', '1', '3', '2', '2', '4']","[104.96623989997897, 105.17428259999724, 105.42228989998694, 107.03028350000386, 107.23824589999276, 107.3741955999867]",8,6,# # # # # #,None,104.96623989997897,105.17428259999724,105.42228989998694,107.03028350000386,107.23824589999276,107.3741955999867,1.4759489999851212,0.20804270001826808,0.24800729998969473,1.6079936000169255,0.20796239998890087,0.1359496999939438
204,20,0.0,3,False,0.0,None,right,False,2,1,0,enc,0,0,0,[],[],8,6,2 3 1 1 3 4,6,0.0,0.0,0.0,0.0,0.0,0.0,0,0.0,0.0,0.0,0.0,0.0
205,21,7.392157599999336,3,True,0.5,acc,right,True,2,1,4,ret,1,4,0,"['4', '3', '2', '1', '1', '2']","[114.97420179998153, 118.17423309999867, 118.41422760000569, 121.91023469998618, 122.2623295999947, 122.36635939998087]",8,6,# # # # # #,None,114.97420179998153,118.17423309999867,118.41422760000569,121.91023469998618,122.2623295999947,122.36635939998087,1.100006199994823,3.2000313000171445,0.23999450000701472,3.4960070999804884,0.35209490000852384,0.10402979998616502
206,22,0.0,3,False,0.0,None,right,False,2,1,0,enc,0,0,0,[],[],8,6,4 3 2 2 1 3,6,0.0,0.0,0.0,0.0,0.0,0.0,0,0.0,0.0,0.0,0.0,0.0
207,23,4.215377699991223,3,True,0.5,acc,right,True,2,1,5,ret,1,5,0,"['3', '1', '2', '1', '3', '4']","[130.55076839998947, 130.77423209999688, 130.96614129998488, 134.3582357999985, 134.55035869998392, 134.7661460999807]",8,6,# # # # # #,None,130.55076839998947,130.77423209999688,130.96614129998488,134.3582357999985,134.55035869998392,134.7661460999807,1.6844090000085998,0.22346370000741445,0.19190919998800382,3.392094500013627,0.19212289998540655,0.21578739999677055
