,Tn,MT,chunk,display_trial_feedback,feedback_dur,feedback_type,hand,is_error,item_dur,iti_dur,number_correct,phase,phase_type,points,recall_dir,response,response_time,run_number,seq_length,seq_str,trial_dur,P1,P2,P3,P4,P5,P6,IPI_0,IPI_1,IPI_2,IPI_3,IPI_4,IPI_5
0,0,0.0,3,False,0.0,None,right,False,2,1,0,enc,0,0,1,[],[],1,6,2 2 2 4 4 3,6,0.0,0.0,0.0,0.0,0.0,0.0,0,0.0,0.0,0.0,0.0,0.0
1,1,2.8301709,3,True,0.5,acc,right,False,2,1,6,ret,1,10,1,"['2', '2', '2', '4', '4', '3']","[5.332395699995686, 5.65263799999957, 5.946424299996579, 7.27376739999454, 7.653674899993348, 8.162566600003629]",1,6,# # # # # #,None,5.332395699995686,5.65263799999957,5.946424299996579,7.27376739999454,7.653674899993348,8.162566600003629,-1.1676043000043137,0.32024230000388343,0.29378629999700934,1.327343099997961,0.3799074999988079,0.5088917000102811
2,2,0.0,3,False,0.0,None,right,False,2,1,0,enc,0,0,1,[],[],1,6,1 3 1 3 1 2,6,0.0,0.0,0.0,0.0,0.0,0.0,0,0.0,0.0,0.0,0.0,0.0
3,3,2.4945668,3,True,0.5,acc,right,False,2,1,6,ret,1,10,1,"['1', '3', '1', '3', '1', '2']","[15.07539669999096, 15.903157399996417, 16.202296599993133, 16.942378299994743, 17.29057080000348, 17.56996349999099]",1,6,# # # # # #,None,15.07539669999096,15.903157399996417,16.202296599993133,16.942378299994743,17.29057080000348,17.56996349999099,0.4128300999873318,0.8277607000054559,0.29913919999671634,0.7400817000016104,0.3481925000087358,0.27939269998751115
4,4,0.0,3,False,0.0,None,right,False,2,1,0,enc,0,0,0,[],[],1,6,4 1 4 3 4 3,6,0.0,0.0,0.0,0.0,0.0,0.0,0,0.0,0.0,0.0,0.0,0.0
5,5,2.6204461,3,True,0.5,acc,right,False,2,1,6,ret,1,10,0,"['3', '4', '3', '4', '1', '4']","[24.900918500003172, 25.260386399997515, 25.569919300003676, 26.957004800002323, 27.27753369999118, 27.521364600004745]",1,6,# # # # # #,None,24.900918500003172,25.260386399997515,25.569919300003676,26.957004800002323,27.27753369999118,27.521364600004745,0.8309550000121817,0.3594678999943426,0.30953290000616107,1.3870854999986477,0.32052889998885803,0.24383090001356322
6,6,0.0,2,False,0.0,None,right,False,2,1,0,enc,0,0,1,[],[],1,6,4 3 4 1 4 4,4,0.0,0.0,0.0,0.0,0.0,0.0,0,0.0,0.0,0.0,0.0,0.0
7,7,2.0313494,2,True,0.5,acc,right,False,2,1,6,ret,1,10,1,"['4', '3', '4', '1', '4', '4']","[36.18035539999255, 36.714389100001426, 37.353500500001246, 37.698084299991024, 37.982166599991615, 38.21170479999273]",1,6,# # # # # #,None,36.18035539999255,36.714389100001426,37.353500500001246,37.698084299991024,37.982166599991615,38.21170479999273,2.158990799987805,0.5340337000088766,0.6391113999998197,0.3445837999897776,0.2840823000005912,0.2295382000011159
8,8,0.0,2,False,0.0,None,right,False,2,1,0,enc,0,0,0,[],[],1,6,4 1 3 3 1 4,4,0.0,0.0,0.0,0.0,0.0,0.0,0,0.0,0.0,0.0,0.0,0.0
9,9,7.1115387,2,True,0.5,acc,right,False,2,1,6,ret,1,10,0,"['4', '1', '3', '3', '1', '4']","[47.13065560000541, 47.50982700000168, 50.21581189999415, 50.48484350000217, 54.027419799997006, 54.24219429999357]",1,6,# # # # # #,None,47.13065560000541,47.50982700000168,50.21581189999415,50.48484350000217,54.027419799997006,54.24219429999357,2.4189508000126807,0.3791713999962667,2.7059848999924725,0.2690316000080202,3.5425762999948347,0.21477449999656528
10,10,0.0,2,False,0.0,None,right,False,2,1,0,enc,0,0,0,[],[],1,6,1 3 4 2 2 2,4,0.0,0.0,0.0,0.0,0.0,0.0,0,0.0,0.0,0.0,0.0,0.0
11,11,4.6244884,2,True,0.5,acc,right,True,2,1,4,ret,1,4,0,"['2', '2', '4', '4', '2', '1']","[63.81556210000417, 64.05854009999894, 66.59367659999407, 66.91287580000062, 68.2856124999962, 68.44005049999396]",1,6,# # # # # #,None,63.81556210000417,64.05854009999894,66.59367659999407,66.91287580000062,68.2856124999962,68.44005049999396,3.073367800010601,0.2429779999947641,2.535136499995133,0.3191992000065511,1.3727366999955848,0.15443799999775365
12,12,0.0,3,False,0.0,None,right,False,2,1,0,enc,0,0,0,[],[],1,6,4 1 1 1 4 3,6,0.0,0.0,0.0,0.0,0.0,0.0,0,0.0,0.0,0.0,0.0,0.0
13,13,3.5336027,3,True,0.5,acc,right,False,2,1,6,ret,1,10,0,"['3', '4', '1', '1', '1', '4']","[78.40736100000504, 78.73177329999453, 79.04096820000268, 81.39655279999715, 81.70615230000112, 81.9409636999917]",1,6,# # # # # #,None,78.40736100000504,78.73177329999453,79.04096820000268,81.39655279999715,81.70615230000112,81.9409636999917,3.467310500011081,0.32441229998948984,0.3091949000081513,2.3555845999944722,0.3095995000039693,0.23481139999057632
14,14,0.0,2,False,0.0,None,right,False,2,1,0,enc,0,0,1,[],[],1,6,1 2 3 4 3 1,4,0.0,0.0,0.0,0.0,0.0,0.0,0,0.0,0.0,0.0,0.0,0.0
15,15,2.971324,2,True,0.5,acc,right,False,2,1,6,ret,1,10,1,"['1', '2', '3', '4', '3', '1']","[90.35564049999812, 90.77414720000525, 91.98684450000292, 92.27146629999334, 93.07502309999836, 93.3269644999964]",1,6,# # # # # #,None,90.35564049999812,90.77414720000525,91.98684450000292,92.27146629999334,93.07502309999836,93.3269644999964,1.9146768000064185,0.41850670000712853,1.2126972999976715,0.28462179999041837,0.8035568000050262,0.25194139999803156
16,0,0.0,3,False,0.0,None,right,False,2,1,0,enc,0,0,1,[],[],1,6,4 2 2 1 1 2,6,0.0,0.0,0.0,0.0,0.0,0.0,0,0.0,0.0,0.0,0.0,0.0
17,1,1.9116128,3,True,0.5,acc,right,False,2,1,6,ret,1,10,1,"['4', '2', '2', '1', '1', '2']","[5.898822099999961, 6.506690199999866, 6.682595199999923, 7.418591400000878, 7.59459440000137, 7.810434900002292]",1,6,# # # # # #,None,5.898822099999961,6.506690199999866,6.682595199999923,7.418591400000878,7.59459440000137,7.810434900002292,NaN,0.6078680999999051,0.17590500000005704,0.7359962000009546,0.17600300000049174,0.21584050000092248
18,2,0.0,3,False,0.0,None,right,False,2,1,0,enc,0,0,1,[],[],1,6,3 3 2 2 3 3,6,0.0,0.0,0.0,0.0,0.0,0.0,0,0.0,0.0,0.0,0.0,0.0
19,3,2.2079294,3,True,0.5,acc,right,False,2,1,6,ret,1,10,1,"['3', '3', '2', '2', '3', '3']","[14.970631700001832, 15.258535500001017, 15.834592000002885, 16.69049250000171, 17.01061330000084, 17.17856110000139]",1,6,# # # # # #,None,14.970631700001832,15.258535500001017,15.834592000002885,16.69049250000171,17.01061330000084,17.17856110000139,0.6601967999995395,0.28790379999918514,0.5760565000018687,0.8559004999988247,0.3201207999991311,0.16794780000054743
20,4,0.0,2,False,0.0,None,right,False,2,1,0,enc,0,0,0,[],[],1,6,1 4 4 2 2 1,4,0.0,0.0,0.0,0.0,0.0,0.0,0,0.0,0.0,0.0,0.0,0.0
21,5,6.7600389,2,True,0.5,acc,right,False,2,1,6,ret,1,10,0,"['1', '2', '2', '4', '4', '1']","[26.522529199999553, 27.026499499999773, 29.87444400000095, 30.21857540000201, 33.01929590000145, 33.28256809999948]",1,6,# # # # # #,None,26.522529199999553,27.026499499999773,29.87444400000095,30.21857540000201,33.01929590000145,33.28256809999948,2.8439680999981647,0.5039703000002191,2.8479445000011765,0.3441314000010607,2.800720499999443,0.26327219999802765
22,6,0.0,3,False,0.0,None,right,False,2,1,0,enc,0,0,0,[],[],1,6,2 3 3 2 4 1,6,0.0,0.0,0.0,0.0,0.0,0.0,0,0.0,0.0,0.0,0.0,0.0
23,7,6.9358923,3,True,0.5,acc,right,False,2,1,6,ret,1,10,0,"['1', '4', '2', '3', '3', '2']","[40.74657400000069, 41.87449520000155, 43.11451090000264, 46.69856609999988, 46.866465099999914, 47.68246630000067]",1,6,# # # # # #,None,40.74657400000069,41.87449520000155,43.11451090000264,46.69856609999988,46.866465099999914,47.68246630000067,0.9640059000012116,1.1279212000008556,1.240015700001095,3.5840551999972377,0.167899000000034,0.8160012000007555
24,8,0.0,2,False,0.0,None,right,False,2,1,0,enc,0,0,0,[],[],1,6,4 3 2 1 3 4,4,0.0,0.0,0.0,0.0,0.0,0.0,0,0.0,0.0,0.0,0.0,0.0
25,9,6.8239786,2,True,0.5,acc,right,False,2,1,6,ret,1,10,0,"['4', '3', '1', '2', '3', '4']","[59.17853620000096, 59.5305014000005, 61.674480500001664, 61.89845369999966, 65.81842450000113, 66.00251480000225]",1,6,# # # # # #,None,59.17853620000096,59.5305014000005,61.674480500001664,61.89845369999966,65.81842450000113,66.00251480000225,4.996069900000293,0.35196519999954035,2.143979100001161,0.22397319999799947,3.9199708000014652,0.1840903000011167
26,10,0.0,2,False,0.0,None,right,False,2,1,0,enc,0,0,1,[],[],1,6,4 3 3 1 1 2,4,0.0,0.0,0.0,0.0,0.0,0.0,0,0.0,0.0,0.0,0.0,0.0
27,11,2.0720185,2,True,0.5,acc,right,True,2,1,5,ret,1,5,1,"['4', '3', '2', '1', '1', '2']","[75.3544323999995, 75.61839690000124, 76.10653290000118, 76.29847739999968, 77.2264404000016, 77.42645090000224]",1,6,# # # # # #,None,75.3544323999995,75.61839690000124,76.10653290000118,76.29847739999968,77.2264404000016,77.42645090000224,2.8519175999972504,0.2639645000017481,0.4881359999999404,0.19194449999849894,0.9279630000019097,0.20001050000064424
28,12,0.0,3,False,0.0,None,right,False,2,1,0,enc,0,0,0,[],[],1,6,2 3 4 2 2 1,6,0.0,0.0,0.0,0.0,0.0,0.0,0,0.0,0.0,0.0,0.0,0.0
29,13,7.6318684,3,True,0.5,acc,right,True,2,1,5,ret,1,5,0,"['1', '2', '2', '4', '3', '4']","[85.49052760000268, 85.8984068000027, 86.08227430000261, 91.7544213000001, 92.93911240000307, 93.12239600000248]",1,6,# # # # # #,None,85.49052760000268,85.8984068000027,86.08227430000261,91.7544213000001,92.93911240000307,93.12239600000248,1.5640767000004416,0.40787920000002487,0.1838674999999057,5.672146999997494,1.184691100002965,0.18328359999941313
30,14,0.0,2,False,0.0,None,right,False,2,1,0,enc,0,0,1,[],[],1,6,4 2 3 4 2 1,4,0.0,0.0,0.0,0.0,0.0,0.0,0,0.0,0.0,0.0,0.0,0.0
31,15,2.5519087,2,True,0.5,acc,right,False,2,1,6,ret,1,10,1,"['4', '2', '3', '4', '2', '1']","[103.97855710000294, 104.24237150000044, 104.71440260000236, 105.4263721999996, 106.35438179999983, 106.53046580000228]",1,6,# # # # # #,None,103.97855710000294,104.24237150000044,104.71440260000236,105.4263721999996,106.35438179999983,106.53046580000228,4.356161100000463,0.2638143999975,0.47203110000191373,0.7119695999972464,0.9280096000002231,0.17608400000244728
32,16,0.0,2,False,0.0,None,right,False,2,1,0,enc,0,0,1,[],[],1,6,1 4 1 3 2 4,4,0.0,0.0,0.0,0.0,0.0,0.0,0,0.0,0.0,0.0,0.0,0.0
33,17,3.7442504,2,True,0.5,acc,right,False,2,1,6,ret,1,10,1,"['1', '4', '1', '3', '2', '4']","[116.04236200000014, 116.92242220000117, 117.41038140000092, 118.64240940000309, 119.50636490000034, 119.78661240000292]",1,6,# # # # # #,None,116.04236200000014,116.92242220000117,117.41038140000092,118.64240940000309,119.50636490000034,119.78661240000292,3.0118961999978637,0.8800602000010258,0.4879591999997501,1.232028000002174,0.8639554999972461,0.2802475000025879
34,18,0.0,3,False,0.0,None,right,False,2,1,0,enc,0,0,0,[],[],1,6,2 3 3 3 3 4,6,0.0,0.0,0.0,0.0,0.0,0.0,0,0.0,0.0,0.0,0.0,0.0
35,19,2.6400472,3,True,0.5,acc,right,False,2,1,6,ret,1,10,0,"['4', '3', '3', '3', '3', '2']","[127.21829330000037, 127.65034709999964, 127.81042739999975, 129.53032510000048, 129.6742114000008, 129.85834050000267]",1,6,# # # # # #,None,127.21829330000037,127.65034709999964,127.81042739999975,129.53032510000048,129.6742114000008,129.85834050000267,0.9316808999974455,0.43205379999926663,0.16008030000011786,1.719897700000729,0.1438863000003039,0.18412910000188276
36,20,0.0,3,False,0.0,None,right,False,2,1,0,enc,0,0,1,[],[],1,6,1 1 3 2 2 4,6,0.0,0.0,0.0,0.0,0.0,0.0,0,0.0,0.0,0.0,0.0,0.0
37,21,1.5360596,3,True,0.5,acc,right,False,2,1,6,ret,1,10,1,"['1', '1', '3', '2', '2', '4']","[136.60233250000238, 136.77044920000117, 137.24243280000155, 137.65840560000288, 137.81038340000305, 138.1383921000015]",1,6,# # # # # #,None,136.60233250000238,136.77044920000117,137.24243280000155,137.65840560000288,137.81038340000305,138.1383921000015,0.24399199999970733,0.16811669999879086,0.4719836000003852,0.4159728000013274,0.15197780000016792,0.32800869999846327
38,22,0.0,2,False,0.0,None,right,False,2,1,0,enc,0,0,0,[],[],1,6,4 1 1 1 4 4,4,0.0,0.0,0.0,0.0,0.0,0.0,0,0.0,0.0,0.0,0.0,0.0
39,23,3.2000728,2,True,0.5,acc,right,False,2,1,6,ret,1,10,0,"['4', '4', '1', '1', '1', '4']","[147.3462849000025, 147.49831460000132, 148.69075440000233, 148.82640320000064, 150.2184374999997, 150.54635770000095]",1,6,# # # # # #,None,147.3462849000025,147.49831460000132,148.69075440000233,148.82640320000064,150.2184374999997,150.54635770000095,2.707892800000991,0.15202969999882043,1.1924398000010115,0.13564879999830737,1.392034299999068,0.32792020000124467
40,0,0.0,3,False,0.0,None,right,False,2,1,0,enc,0,0,1,[],[],2,6,3 2 2 3 2 3,6,0.0,0.0,0.0,0.0,0.0,0.0,0,0.0,0.0,0.0,0.0,0.0
41,1,1.5681237,3,True,0.5,acc,right,False,2,1,6,ret,1,10,1,"['3', '2', '2', '3', '2', '3']","[5.5966606000001775, 5.820863299999473, 5.980771599999571, 6.588860399999248, 6.972741400000814, 7.164784300002793]",2,6,# # # # # #,None,5.5966606000001775,5.820863299999473,5.980771599999571,6.588860399999248,6.972741400000814,7.164784300002793,NaN,0.22420269999929587,0.15990830000009737,0.6080887999996776,0.38388100000156555,0.19204290000197943
42,2,0.0,2,False,0.0,None,right,False,2,1,0,enc,0,0,1,[],[],2,6,2 4 4 4 4 1,4,0.0,0.0,0.0,0.0,0.0,0.0,0,0.0,0.0,0.0,0.0,0.0
43,3,1.9839444,2,True,0.5,acc,right,False,2,1,6,ret,1,10,1,"['2', '4', '4', '4', '4', '1']","[15.980727699999989, 16.70876810000118, 17.25320070000089, 17.428751700001158, 17.732733700002427, 17.964672100002645]",2,6,# # # # # #,None,15.980727699999989,16.70876810000118,17.25320070000089,17.428751700001158,17.732733700002427,17.964672100002645,2.3159433999971952,0.7280404000011913,0.544432599999709,0.1755510000002687,0.3039820000012696,0.23193840000021737
44,4,0.0,3,False,0.0,None,right,False,2,1,0,enc,0,0,1,[],[],2,6,1 4 1 4 4 3,6,0.0,0.0,0.0,0.0,0.0,0.0,0,0.0,0.0,0.0,0.0,0.0
45,5,1.5840154,3,True,0.5,acc,right,False,2,1,6,ret,1,10,1,"['1', '4', '1', '4', '4', '3']","[24.740758200001437, 25.2846051000015, 25.54904119999992, 25.98879460000171, 26.13276229999974, 26.32477360000121]",2,6,# # # # # #,None,24.740758200001437,25.2846051000015,25.54904119999992,25.98879460000171,26.13276229999974,26.32477360000121,0.27608609999879263,0.5438469000000623,0.2644360999984201,0.4397534000017913,0.14396769999802927,0.19201130000146804
46,6,0.0,3,False,0.0,None,right,False,2,1,0,enc,0,0,0,[],[],2,6,1 3 1 3 1 3,6,0.0,0.0,0.0,0.0,0.0,0.0,0,0.0,0.0,0.0,0.0,0.0
47,7,4.3599758,3,True,0.5,acc,right,False,2,1,6,ret,1,10,0,"['3', '1', '3', '1', '3', '1']","[34.2927935000007, 35.21276050000233, 35.71669230000043, 38.196698700001434, 38.46070400000099, 38.65276930000255]",2,6,# # # # # #,None,34.2927935000007,35.21276050000233,35.71669230000043,38.196698700001434,38.46070400000099,38.65276930000255,1.46801989999949,0.919967000001634,0.5039317999980995,2.4800064000010025,0.26400529999955324,0.19206530000155908
48,8,0.0,2,False,0.0,None,right,False,2,1,0,enc,0,0,0,[],[],2,6,2 1 4 4 4 2,4,0.0,0.0,0.0,0.0,0.0,0.0,0,0.0,0.0,0.0,0.0,0.0
49,9,1.768244,2,True,0.5,acc,right,False,2,1,6,ret,1,10,0,"['2', '4', '4', '4', '1', '2']","[47.89266990000033, 48.42872550000175, 48.87666100000206, 49.052680700002384, 49.46863830000075, 49.66091389999929]",2,6,# # # # # #,None,47.89266990000033,48.42872550000175,48.87666100000206,49.052680700002384,49.46863830000075,49.66091389999929,2.7399005999977817,0.5360556000014185,0.44793550000031246,0.17601970000032452,0.41595759999836446,0.19227559999853838
50,10,0.0,3,False,0.0,None,right,False,2,1,0,enc,0,0,0,[],[],2,6,3 3 4 1 2 3,6,0.0,0.0,0.0,0.0,0.0,0.0,0,0.0,0.0,0.0,0.0,0.0
51,11,3.5039812,3,True,0.5,acc,right,True,2,1,3,ret,1,3,0,"['3', '2', '1', '3', '4', '4']","[57.04472180000084, 57.23671150000155, 57.41260410000177, 59.644694400001754, 60.37263080000048, 60.54870300000039]",2,6,# # # # # #,None,57.04472180000084,57.23671150000155,57.41260410000177,59.644694400001754,60.37263080000048,60.54870300000039,0.8838079000015568,0.19198970000070403,0.17589260000022477,2.2320902999999817,0.7279363999987254,0.17607219999990775
52,12,0.0,2,False,0.0,None,right,False,2,1,0,enc,0,0,0,[],[],2,6,4 2 2 2 3 1,4,0.0,0.0,0.0,0.0,0.0,0.0,0,0.0,0.0,0.0,0.0,0.0
53,13,3.7039508,2,True,0.5,acc,right,False,2,1,6,ret,1,10,0,"['1', '3', '2', '2', '2', '4']","[70.4686763000027, 71.1887349000026, 72.06069260000004, 72.2206608000015, 73.78873270000258, 74.17262710000068]",2,6,# # # # # #,None,70.4686763000027,71.1887349000026,72.06069260000004,72.2206608000015,73.78873270000258,74.17262710000068,3.4199733000023116,0.7200585999999021,0.8719576999974379,0.15996820000145817,1.5680719000010868,0.3838943999980984
54,14,0.0,3,False,0.0,None,right,False,2,1,0,enc,0,0,1,[],[],2,6,3 2 2 1 1 4,6,0.0,0.0,0.0,0.0,0.0,0.0,0,0.0,0.0,0.0,0.0,0.0
55,15,1.9678789,3,True,0.5,acc,right,False,2,1,6,ret,1,10,1,"['3', '2', '2', '1', '1', '4']","[81.26878740000029, 81.74869580000086, 82.1166591000001, 82.68473970000196, 82.81265490000078, 83.23666629999934]",2,6,# # # # # #,None,81.26878740000029,81.74869580000086,82.1166591000001,82.68473970000196,82.81265490000078,83.23666629999934,0.5961602999996103,0.4799084000005678,0.3679632999992464,0.5680806000018492,0.1279151999988244,0.4240113999985624
56,16,0.0,2,False,0.0,None,right,False,2,1,0,enc,0,0,0,[],[],2,6,4 3 2 1 2 2,4,0.0,0.0,0.0,0.0,0.0,0.0,0,0.0,0.0,0.0,0.0,0.0
57,17,3.6000685,2,True,0.5,acc,right,True,2,1,5,ret,1,5,0,"['3', '2', '1', '2', '3', '4']","[95.16461360000176, 95.94918340000004, 97.27656290000232, 97.468615400001, 98.59666060000018, 98.76468210000166]",2,6,# # # # # #,None,95.16461360000176,95.94918340000004,97.27656290000232,97.468615400001,98.59666060000018,98.76468210000166,5.427947300002415,0.7845697999982804,1.32737950000228,0.19205249999868101,1.1280451999991783,0.16802150000148686
58,18,0.0,2,False,0.0,None,right,False,2,1,0,enc,0,0,1,[],[],2,6,3 1 4 4 2 3,4,0.0,0.0,0.0,0.0,0.0,0.0,0,0.0,0.0,0.0,0.0,0.0
59,19,3.2639706,2,True,0.5,acc,right,True,2,1,5,ret,1,5,1,"['2', '1', '4', '4', '2', '3']","[108.50860260000263, 109.15657909999936, 110.88466970000081, 111.0446073000021, 111.59668059999967, 111.7725731999999]",2,6,# # # # # #,None,108.50860260000263,109.15657909999936,110.88466970000081,111.0446073000021,111.59668059999967,111.7725731999999,3.243920500000968,0.6479764999967301,1.728090600001451,0.15993760000128532,0.5520732999975735,0.17589260000022477
60,20,0.0,3,False,0.0,None,right,False,2,1,0,enc,0,0,0,[],[],2,6,1 1 4 4 3 2,6,0.0,0.0,0.0,0.0,0.0,0.0,0,0.0,0.0,0.0,0.0,0.0
61,21,3.7599924,3,True,0.5,acc,right,False,2,1,6,ret,1,10,0,"['2', '3', '4', '4', '1', '1']","[119.48467240000173, 119.94056670000282, 120.37256089999937, 122.54055290000179, 123.10860890000185, 123.24466480000046]",2,6,# # # # # #,None,119.48467240000173,119.94056670000282,120.37256089999937,122.54055290000179,123.10860890000185,123.24466480000046,1.2120992000018305,0.4558943000010913,0.4319941999965522,2.167992000002414,0.5680560000000696,0.13605589999860968
62,22,0.0,2,False,0.0,None,right,False,2,1,0,enc,0,0,1,[],[],2,6,4 2 1 2 4 1,4,0.0,0.0,0.0,0.0,0.0,0.0,0,0.0,0.0,0.0,0.0,0.0
63,23,1.5197729,2,True,0.5,acc,right,False,2,1,6,ret,1,10,1,"['4', '2', '1', '2', '4', '1']","[132.63677839999946, 132.86872510000103, 133.10854490000202, 133.3085616999997, 133.93256610000026, 134.15655130000232]",2,6,# # # # # #,None,132.63677839999946,132.86872510000103,133.10854490000202,133.3085616999997,133.93256610000026,134.15655130000232,2.892113599998993,0.23194670000157203,0.23981980000098702,0.20001679999768385,0.6240044000005582,0.2239852000020619
64,0,0.0,2,False,0.0,None,right,False,2,1,0,enc,0,0,1,[],[],3,6,1 3 3 1 2 3,4,0.0,0.0,0.0,0.0,0.0,0.0,0,0.0,0.0,0.0,0.0,0.0
65,1,1.2877806,2,True,0.5,acc,right,False,2,1,6,ret,1,10,1,"['1', '3', '3', '1', '2', '3']","[7.206730700003391, 7.494425600001705, 7.7836046000011265, 8.006612900000619, 8.310581400000956, 8.494511300003069]",3,6,# # # # # #,None,7.206730700003391,7.494425600001705,7.7836046000011265,8.006612900000619,8.310581400000956,8.494511300003069,NaN,0.2876948999983142,0.28917899999942165,0.223008299999492,0.30396850000033737,0.18392990000211284
66,2,0.0,3,False,0.0,None,right,False,2,1,0,enc,0,0,0,[],[],3,6,2 3 1 2 2 1,6,0.0,0.0,0.0,0.0,0.0,0.0,0,0.0,0.0,0.0,0.0,0.0
67,3,2.4721135,3,True,0.5,acc,right,False,2,1,6,ret,1,10,0,"['1', '2', '2', '1', '3', '2']","[17.21439460000329, 17.742425000000367, 18.054546300001675, 19.046990100003313, 19.478446500001155, 19.686508100003266]",3,6,# # # # # #,None,17.21439460000329,17.742425000000367,18.054546300001675,19.046990100003313,19.478446500001155,19.686508100003266,2.2198833000002196,0.5280303999970783,0.31212130000130855,0.992443800001638,0.4314563999978418,0.20806160000211094
68,4,0.0,3,False,0.0,None,right,False,2,1,0,enc,0,0,1,[],[],3,6,4 1 3 2 2 1,6,0.0,0.0,0.0,0.0,0.0,0.0,0,0.0,0.0,0.0,0.0,0.0
69,5,1.1201317,3,True,0.5,acc,right,False,2,1,6,ret,1,10,1,"['4', '1', '3', '2', '2', '1']","[27.222413700001198, 27.45439940000142, 27.726404800003365, 28.054346000000805, 28.182412100002693, 28.342545400002564]",3,6,# # # # # #,None,27.222413700001198,27.45439940000142,27.726404800003365,28.054346000000805,28.182412100002693,28.342545400002564,1.0359055999979319,0.231985700000223,0.2720054000019445,0.32794119999744,0.12806610000188812,0.16013329999987036
70,6,0.0,2,False,0.0,None,right,False,2,1,0,enc,0,0,0,[],[],3,6,3 4 4 3 4 1,4,0.0,0.0,0.0,0.0,0.0,0.0,0,0.0,0.0,0.0,0.0,0.0
71,7,2.9678172,2,True,0.5,acc,right,False,2,1,6,ret,1,10,0,"['1', '4', '3', '4', '4', '3']","[37.39047620000201, 37.958344300001045, 38.654414100001304, 38.97431690000303, 40.15840410000237, 40.35829340000055]",3,6,# # # # # #,None,37.39047620000201,37.958344300001045,38.654414100001304,38.97431690000303,40.15840410000237,40.35829340000055,2.547930799999449,0.567868099999032,0.6960698000002594,0.3199028000017279,1.1840871999993396,0.19988929999817628
72,8,0.0,3,False,0.0,None,right,False,2,1,0,enc,0,0,1,[],[],3,6,1 2 2 4 4 3,6,0.0,0.0,0.0,0.0,0.0,0.0,0,0.0,0.0,0.0,0.0,0.0
73,9,1.8001279,3,True,0.5,acc,right,False,2,1,6,ret,1,10,1,"['1', '2', '2', '4', '4', '3']","[47.422219200001564, 47.630261100002826, 47.77445020000232, 48.75843570000143, 49.046506200000294, 49.22234710000339]",3,6,# # # # # #,None,47.422219200001564,47.630261100002826,47.77445020000232,48.75843570000143,49.046506200000294,49.22234710000339,0.5639258000010159,0.20804190000126255,0.14418909999949392,0.9839854999991076,0.2880704999988666,0.17584090000309516
74,10,0.0,2,False,0.0,None,right,False,2,1,0,enc,0,0,0,[],[],3,6,4 4 3 2 3 3,4,0.0,0.0,0.0,0.0,0.0,0.0,0,0.0,0.0,0.0,0.0,0.0
75,11,1.8080617,2,True,0.5,acc,right,False,2,1,6,ret,1,10,0,"['3', '3', '2', '3', '4', '4']","[58.838334300002316, 58.99840190000032, 59.47880360000272, 59.670355199999904, 60.51036500000191, 60.646396000000095]",3,6,# # # # # #,None,58.838334300002316,58.99840190000032,59.47880360000272,59.670355199999904,60.51036500000191,60.646396000000095,3.1159871999989264,0.16006759999800124,0.48040170000240323,0.19155159999718308,0.840009800002008,0.1360309999981837
76,12,0.0,3,False,0.0,None,right,False,2,1,0,enc,0,0,0,[],[],3,6,2 4 3 2 2 4,6,0.0,0.0,0.0,0.0,0.0,0.0,0,0.0,0.0,0.0,0.0,0.0
77,13,3.0959075,3,True,0.5,acc,right,False,2,1,6,ret,1,10,0,"['4', '2', '2', '3', '4', '2']","[68.60633530000268, 69.5423507000014, 69.71835070000088, 71.2383391000003, 71.4385551000014, 71.70224280000184]",3,6,# # # # # #,None,68.60633530000268,69.5423507000014,69.71835070000088,71.2383391000003,71.4385551000014,71.70224280000184,1.4599393000025884,0.9360153999987233,0.17599999999947613,1.51998839999942,0.20021600000109174,0.26368770000044606
78,14,0.0,2,False,0.0,None,right,False,2,1,0,enc,0,0,0,[],[],3,6,2 3 4 4 1 2,4,0.0,0.0,0.0,0.0,0.0,0.0,0,0.0,0.0,0.0,0.0,0.0
79,15,3.1918124,2,True,0.5,acc,right,False,2,1,6,ret,1,10,0,"['2', '1', '4', '4', '3', '2']","[83.44650290000209, 83.6702148000004, 84.89442860000054, 85.03033230000074, 86.47842830000081, 86.63831530000243]",3,6,# # # # # #,None,83.44650290000209,83.6702148000004,84.89442860000054,85.03033230000074,86.47842830000081,86.63831530000243,5.244260100000247,0.22371189999830676,1.2242138000001432,0.13590370000019902,1.4480960000000778,0.1598870000016177
80,16,0.0,3,False,0.0,None,right,False,2,1,0,enc,0,0,1,[],[],3,6,2 1 1 2 4 1,6,0.0,0.0,0.0,0.0,0.0,0.0,0,0.0,0.0,0.0,0.0,0.0
81,17,3.2078863,3,True,0.5,acc,right,False,2,1,6,ret,1,10,1,"['2', '1', '1', '2', '4', '1']","[93.40636340000128, 93.59838590000072, 93.75040220000301, 95.81431610000072, 96.41434060000029, 96.61424970000007]",3,6,# # # # # #,None,93.40636340000128,93.59838590000072,93.75040220000301,95.81431610000072,96.41434060000029,96.61424970000007,0.2680480999988504,0.19202249999943888,0.1520163000022876,2.063913899997715,0.600024499999563,0.19990909999978612
82,18,0.0,3,False,0.0,None,right,False,2,1,0,enc,0,0,0,[],[],3,6,3 2 1 1 3 2,6,0.0,0.0,0.0,0.0,0.0,0.0,0,0.0,0.0,0.0,0.0,0.0
83,19,7.6399596,3,True,0.5,acc,right,True,2,1,4,ret,1,4,0,"['2', '3', '1', '1', '3', '2']","[105.70232530000067, 108.67816940000193, 108.87833840000167, 112.54227820000233, 113.16627900000094, 113.34228490000169]",3,6,# # # # # #,None,105.70232530000067,108.67816940000193,108.87833840000167,112.54227820000233,113.16627900000094,113.34228490000169,2.588075600000593,2.975844100001268,0.20016899999973248,3.663939800000662,0.6240007999986119,0.1760059000007459
84,20,0.0,2,False,0.0,None,right,False,2,1,0,enc,0,0,1,[],[],3,6,1 4 1 4 2 1,4,0.0,0.0,0.0,0.0,0.0,0.0,0,0.0,0.0,0.0,0.0,0.0
85,21,1.1280678,2,True,0.5,acc,right,True,2,1,4,ret,1,4,1,"['1', '3', '1', '3', '2', '1']","[121.85424110000167, 122.18226409999988, 122.38225210000019, 122.64629320000313, 122.83027690000017, 122.98230890000195]",3,6,# # # # # #,None,121.85424110000167,122.18226409999988,122.38225210000019,122.64629320000313,122.83027690000017,122.98230890000195,2.011956199999986,0.32802299999821116,0.19998800000030315,0.2640411000029417,0.183983699997043,0.15203200000178185
86,22,0.0,2,False,0.0,None,right,False,2,1,0,enc,0,0,1,[],[],3,6,1 3 2 1 1 3,4,0.0,0.0,0.0,0.0,0.0,0.0,0,0.0,0.0,0.0,0.0,0.0
87,23,2.2475002,2,True,0.5,acc,right,False,2,1,6,ret,1,10,1,"['1', '3', '2', '1', '1', '3']","[131.67880300000252, 131.99825920000148, 132.98236180000094, 133.15036860000328, 133.71825940000053, 133.9263032000017]",3,6,# # # # # #,None,131.67880300000252,131.99825920000148,132.98236180000094,133.15036860000328,133.71825940000053,133.9263032000017,2.1964941000005638,0.31945619999896735,0.9841025999994599,0.16800680000233115,0.567890799997258,0.20804380000117817
88,0,0.0,2,False,0.0,None,right,False,2,1,0,enc,0,0,1,[],[],4,6,4 4 1 3 2 2,4,0.0,0.0,0.0,0.0,0.0,0.0,0,0.0,0.0,0.0,0.0,0.0
89,1,1.2319952,2,True,0.5,acc,right,False,2,1,6,ret,1,10,1,"['4', '4', '1', '3', '2', '2']","[7.5732112000005145, 7.741397399997368, 8.237214400000084, 8.461305199998606, 8.669116400000348, 8.805206400000316]",4,6,# # # # # #,None,7.5732112000005145,7.741397399997368,8.237214400000084,8.461305199998606,8.669116400000348,8.805206400000316,NaN,0.16818619999685325,0.49581700000271667,0.2240907999985211,0.2078112000017427,0.1360899999999674
90,2,0.0,2,False,0.0,None,right,False,2,1,0,enc,0,0,0,[],[],4,6,3 2 1 3 4 3,4,0.0,0.0,0.0,0.0,0.0,0.0,0,0.0,0.0,0.0,0.0,0.0
91,3,5.2556291,2,True,0.5,acc,right,True,2,1,4,ret,1,4,0,"['3', '4', '3', '1', '3', '4']","[17.909337199998845, 18.101164899999276, 20.05339190000086, 20.237334999997984, 22.98078119999991, 23.164966299998923]",4,6,# # # # # #,None,17.909337199998845,18.101164899999276,20.05339190000086,20.237334999997984,22.98078119999991,23.164966299998923,2.6041307999985293,0.19182770000043092,1.952227000001585,0.18394309999712277,2.7434462000019266,0.1841850999990129
92,4,0.0,3,False,0.0,None,right,False,2,1,0,enc,0,0,0,[],[],4,6,2 3 2 3 1 2,6,0.0,0.0,0.0,0.0,0.0,0.0,0,0.0,0.0,0.0,0.0,0.0
93,5,6.1587612,3,True,0.5,acc,right,False,2,1,6,ret,1,10,0,"['2', '1', '3', '2', '3', '2']","[30.94218600000022, 31.405033700000786, 32.46097820000068, 36.13310260000071, 36.917081899999175, 37.10094720000052]",4,6,# # # # # #,None,30.94218600000022,31.405033700000786,32.46097820000068,36.13310260000071,36.917081899999175,37.10094720000052,1.2772197000012966,0.46284770000056596,1.055944499999896,3.6721244000000297,0.7839792999984638,0.1838653000013437
94,6,0.0,3,False,0.0,None,right,False,2,1,0,enc,0,0,1,[],[],4,6,4 4 4 2 2 1,6,0.0,0.0,0.0,0.0,0.0,0.0,0,0.0,0.0,0.0,0.0,0.0
95,7,1.4866989,3,True,0.5,acc,right,False,2,1,6,ret,1,10,1,"['4', '4', '4', '2', '2', '1']","[44.102194600000075, 44.29300169999988, 44.70896839999841, 45.26890439999988, 45.40492799999993, 45.58889350000027]",4,6,# # # # # #,None,44.102194600000075,44.29300169999988,44.70896839999841,45.26890439999988,45.40492799999993,45.58889350000027,0.5012473999995564,0.19080709999980172,0.41596669999853475,0.5599360000014713,0.1360236000000441,0.1839655000003404
96,8,0.0,2,False,0.0,None,right,False,2,1,0,enc,0,0,1,[],[],4,6,3 1 4 3 4 1,4,0.0,0.0,0.0,0.0,0.0,0.0,0,0.0,0.0,0.0,0.0,0.0
97,9,1.5040195,2,True,0.5,acc,right,False,2,1,6,ret,1,10,1,"['3', '1', '4', '3', '4', '1']","[54.44492519999767, 54.66887199999837, 55.300941699999385, 55.48502609999923, 55.70913029999792, 55.94894469999781]",4,6,# # # # # #,None,54.44492519999767,54.66887199999837,55.300941699999385,55.48502609999923,55.70913029999792,55.94894469999781,2.356031699997402,0.22394680000070366,0.6320697000010114,0.18408439999984694,0.2241041999986919,0.23981439999988652
98,10,0.0,3,False,0.0,None,right,False,2,1,0,enc,0,0,1,[],[],4,6,3 1 4 2 4 3,6,0.0,0.0,0.0,0.0,0.0,0.0,0,0.0,0.0,0.0,0.0,0.0
99,11,1.7599616,3,True,0.5,acc,right,False,2,1,6,ret,1,10,1,"['3', '1', '4', '2', '4', '3']","[62.90095929999734, 63.11701510000057, 63.549011499999324, 64.23701119999896, 64.47692140000072, 64.66092089999802]",4,6,# # # # # #,None,62.90095929999734,63.11701510000057,63.549011499999324,64.23701119999896,64.47692140000072,64.66092089999802,0.4520145999995293,0.21605580000323243,0.43199639999875217,0.6879996999996365,0.23991020000175922,0.1839994999972987
100,12,0.0,2,False,0.0,None,right,False,2,1,0,enc,0,0,0,[],[],4,6,2 1 4 1 4 4,4,0.0,0.0,0.0,0.0,0.0,0.0,0,0.0,0.0,0.0,0.0,0.0
101,13,4.9919361,2,True,0.5,acc,right,False,2,1,6,ret,1,10,0,"['4', '4', '1', '4', '1', '2']","[73.93292429999929, 74.06891529999848, 77.52488689999882, 78.17287450000003, 78.70893609999985, 78.92486039999858]",4,6,# # # # # #,None,73.93292429999929,74.06891529999848,77.52488689999882,78.17287450000003,78.70893609999985,78.92486039999858,2.7720034000012674,0.13599099999919417,3.455971600000339,0.6479876000012155,0.5360615999998117,0.21592429999873275
102,14,0.0,3,False,0.0,None,right,False,2,1,0,enc,0,0,0,[],[],4,6,4 4 4 2 2 3,6,0.0,0.0,0.0,0.0,0.0,0.0,0,0.0,0.0,0.0,0.0,0.0
103,15,1.3907877,3,True,0.5,acc,right,False,2,1,6,ret,1,10,0,"['3', '2', '2', '4', '4', '4']","[86.06216929999937, 86.37283879999814, 86.52484940000068, 87.03692629999932, 87.24545070000022, 87.4529569999977]",4,6,# # # # # #,None,86.06216929999937,86.37283879999814,86.52484940000068,87.03692629999932,87.24545070000022,87.4529569999977,0.6373089000007894,0.3106694999987667,0.15201060000254074,0.5120768999986467,0.208524400000897,0.20750629999747616
104,16,0.0,2,False,0.0,None,right,False,2,1,0,enc,0,0,1,[],[],4,6,4 2 3 2 4 3,4,0.0,0.0,0.0,0.0,0.0,0.0,0,0.0,0.0,0.0,0.0,0.0
105,17,2.0799267,2,True,0.5,acc,right,False,2,1,6,ret,1,10,1,"['4', '2', '3', '2', '4', '3']","[96.81292480000047, 97.21293499999956, 97.49284629999966, 97.67686959999992, 98.66088669999954, 98.89285150000069]",4,6,# # # # # #,None,96.81292480000047,97.21293499999956,97.49284629999966,97.67686959999992,98.66088669999954,98.89285150000069,2.859967800002778,0.4000101999990875,0.27991130000009434,0.18402330000026268,0.984017099999619,0.23196480000115116
106,18,0.0,2,False,0.0,None,right,False,2,1,0,enc,0,0,0,[],[],4,6,4 4 2 3 3 4,4,0.0,0.0,0.0,0.0,0.0,0.0,0,0.0,0.0,0.0,0.0,0.0
107,19,2.5599149,2,True,0.5,acc,right,False,2,1,6,ret,1,10,0,"['4', '3', '3', '2', '4', '4']","[109.35679999999775, 109.56490309999936, 110.53288070000053, 110.71675849999883, 111.79692929999874, 111.91671489999862]",4,6,# # # # # #,None,109.35679999999775,109.56490309999936,110.53288070000053,110.71675849999883,111.79692929999874,111.91671489999862,3.963948499997059,0.20810310000160825,0.967977600001177,0.18387779999829945,1.0801707999999053,0.11978559999988647
108,20,0.0,3,False,0.0,None,right,False,2,1,0,enc,0,0,1,[],[],4,6,3 3 3 1 1 2,6,0.0,0.0,0.0,0.0,0.0,0.0,0,0.0,0.0,0.0,0.0,0.0
109,21,1.3680257,3,True,0.5,acc,right,False,2,1,6,ret,1,10,1,"['3', '3', '3', '1', '1', '2']","[118.79689679999865, 118.98083649999899, 119.20472249999875, 119.80486860000019, 119.97283160000006, 120.1649225000001]",4,6,# # # # # #,None,118.79689679999865,118.98083649999899,119.20472249999875,119.80486860000019,119.97283160000006,120.1649225000001,0.38018190000002505,0.18393970000033733,0.22388599999976577,0.6001461000014388,0.1679629999998724,0.19209090000003926
110,22,0.0,3,False,0.0,None,right,False,2,1,0,enc,0,0,0,[],[],4,6,1 4 3 2 2 1,6,0.0,0.0,0.0,0.0,0.0,0.0,0,0.0,0.0,0.0,0.0,0.0
111,23,3.2719066,3,True,0.5,acc,right,False,2,1,6,ret,1,10,0,"['1', '2', '2', '3', '4', '1']","[127.46092999999746, 127.8607935, 128.02875610000046, 129.39696229999754, 130.19681599999967, 130.73283660000016]",4,6,# # # # # #,None,127.46092999999746,127.8607935,128.02875610000046,129.39696229999754,130.19681599999967,130.73283660000016,0.7960074999973585,0.3998635000025388,0.1679626000004646,1.3682061999970756,0.7998537000021315,0.5360206000004837
112,0,0.0,3,False,0.0,None,right,False,2,1,0,enc,0,0,1,[],[],5,6,4 3 1 1 1 1,6,0.0,0.0,0.0,0.0,0.0,0.0,0,0.0,0.0,0.0,0.0,0.0
113,1,1.5279783,3,True,0.5,acc,right,False,2,1,6,ret,1,10,1,"['4', '3', '1', '1', '1', '1']","[5.5405692999993335, 5.820599300001049, 6.39663500000097, 6.636577000001125, 6.852899500001513, 7.068547599999874]",5,6,# # # # # #,None,5.5405692999993335,5.820599300001049,6.39663500000097,6.636577000001125,6.852899500001513,7.068547599999874,NaN,0.28003000000171596,0.5760356999999203,0.23994200000015553,0.21632250000038766,0.21564809999836143
114,2,0.0,3,False,0.0,None,right,False,2,1,0,enc,0,0,1,[],[],5,6,2 4 2 3 2 4,6,0.0,0.0,0.0,0.0,0.0,0.0,0,0.0,0.0,0.0,0.0,0.0
115,3,1.3440829,3,True,0.5,acc,right,False,2,1,6,ret,1,10,1,"['2', '4', '2', '3', '2', '4']","[13.828411999998934, 14.124531900000875, 14.356617000001279, 14.596413100000063, 14.812509300001693, 15.172494900001766]",5,6,# # # # # #,None,13.828411999998934,14.124531900000875,14.356617000001279,14.596413100000063,14.812509300001693,15.172494900001766,0.25986439999905997,0.29611990000194055,0.23208510000040405,0.23979609999878448,0.21609620000162977,0.35998560000007274
116,4,0.0,2,False,0.0,None,right,False,2,1,0,enc,0,0,1,[],[],5,6,4 3 3 2 2 2,4,0.0,0.0,0.0,0.0,0.0,0.0,0,0.0,0.0,0.0,0.0,0.0
117,5,2.3761348,2,True,0.5,acc,right,False,2,1,6,ret,1,10,1,"['4', '3', '3', '2', '2', '2']","[24.308488200000284, 24.58848560000115, 26.044524400000228, 26.23705659999905, 26.548482199999853, 26.68462300000101]",5,6,# # # # # #,None,24.308488200000284,24.58848560000115,26.044524400000228,26.23705659999905,26.548482199999853,26.68462300000101,2.6359932999985176,0.27999740000086604,1.456038799999078,0.19253219999882276,0.31142560000080266,0.1361408000011579
118,6,0.0,2,False,0.0,None,right,False,2,1,0,enc,0,0,1,[],[],5,6,2 3 1 3 2 3,4,0.0,0.0,0.0,0.0,0.0,0.0,0,0.0,0.0,0.0,0.0,0.0
119,7,1.4161259,2,True,0.5,acc,right,False,2,1,6,ret,1,10,1,"['2', '3', '1', '3', '2', '3']","[35.30045880000034, 35.48449049999908, 35.972430599998916, 36.20465160000094, 36.54848779999884, 36.71658469999966]",5,6,# # # # # #,None,35.30045880000034,35.48449049999908,35.972430599998916,36.20465160000094,36.54848779999884,36.71658469999966,2.1158357999993314,0.1840316999987408,0.48794009999983246,0.23222100000202772,0.34383619999789516,0.168096900000819
120,8,0.0,2,False,0.0,None,right,False,2,1,0,enc,0,0,0,[],[],5,6,3 2 3 1 3 4,4,0.0,0.0,0.0,0.0,0.0,0.0,0,0.0,0.0,0.0,0.0,0.0
121,9,6.9679751,2,True,0.5,acc,right,False,2,1,6,ret,1,10,0,"['4', '3', '1', '3', '2', '3']","[45.756574800001545, 45.94853800000055, 49.05245980000109, 49.34845430000132, 52.53242730000056, 52.724549900001875]",5,6,# # # # # #,None,45.756574800001545,45.94853800000055,49.05245980000109,49.34845430000132,52.53242730000056,52.724549900001875,2.539990100001887,0.1919631999990088,3.103921800000535,0.29599450000023353,3.1839729999992414,0.1921226000013121
122,10,0.0,3,False,0.0,None,right,False,2,1,0,enc,0,0,0,[],[],5,6,1 3 1 4 1 1,6,0.0,0.0,0.0,0.0,0.0,0.0,0,0.0,0.0,0.0,0.0,0.0
123,11,2.824098,3,True,0.5,acc,right,False,2,1,6,ret,1,10,0,"['1', '1', '4', '1', '3', '1']","[60.27637990000221, 60.42836230000103, 61.3563252999993, 62.5964535000021, 62.89240580000114, 63.10047789999953]",5,6,# # # # # #,None,60.27637990000221,60.42836230000103,61.3563252999993,62.5964535000021,62.89240580000114,63.10047789999953,1.0518300000003364,0.1519823999988148,0.9279629999982717,1.2401282000028004,0.29595229999904404,0.2080720999983896
124,12,0.0,3,False,0.0,None,right,False,2,1,0,enc,0,0,0,[],[],5,6,3 3 4 4 1 1,6,0.0,0.0,0.0,0.0,0.0,0.0,0,0.0,0.0,0.0,0.0,0.0
125,13,3.4159582,3,True,0.5,acc,right,False,2,1,6,ret,1,10,0,"['1', '1', '4', '4', '3', '3']","[70.26840630000152, 70.39653679999901, 70.932420000001, 73.3243908000004, 73.54843500000061, 73.68436450000081]",5,6,# # # # # #,None,70.26840630000152,70.39653679999901,70.932420000001,73.3243908000004,73.54843500000061,73.68436450000081,0.6679284000019834,0.12813049999749637,0.5358832000019902,2.391970799999399,0.22404420000020764,0.1359295000002021
126,14,0.0,2,False,0.0,None,right,False,2,1,0,enc,0,0,0,[],[],5,6,1 4 1 2 4 4,4,0.0,0.0,0.0,0.0,0.0,0.0,0,0.0,0.0,0.0,0.0,0.0
127,15,4.8480583,2,True,0.5,acc,right,False,2,1,6,ret,1,10,0,"['4', '4', '2', '1', '4', '1']","[82.95639529999971, 83.09237389999907, 86.42843179999909, 86.60444410000127, 87.50835999999981, 87.80445360000158]",5,6,# # # # # #,None,82.95639529999971,83.09237389999907,86.42843179999909,86.60444410000127,87.50835999999981,87.80445360000158,2.772030799998902,0.1359785999993619,3.3360579000000143,0.17601230000218493,0.9039158999985375,0.2960936000017682
128,16,0.0,2,False,0.0,None,right,False,2,1,0,enc,0,0,1,[],[],5,6,1 2 2 1 4 2,4,0.0,0.0,0.0,0.0,0.0,0.0,0,0.0,0.0,0.0,0.0,0.0
129,17,1.944157,2,True,0.5,acc,right,False,2,1,6,ret,1,10,1,"['1', '2', '2', '1', '4', '2']","[96.42832160000034, 96.70037620000221, 97.0683941999996, 97.24446510000053, 98.172499100001, 98.37247860000207]",5,6,# # # # # #,None,96.42832160000034,96.70037620000221,97.0683941999996,97.24446510000053,98.172499100001,98.37247860000207,2.1238679999987653,0.27205460000186577,0.3680179999973916,0.17607090000092285,0.9280340000004799,0.19997950000106357
130,18,0.0,3,False,0.0,None,right,False,2,1,0,enc,0,0,1,[],[],5,6,2 2 1 3 1 3,6,0.0,0.0,0.0,0.0,0.0,0.0,0,0.0,0.0,0.0,0.0,0.0
131,19,3.3359683,3,True,0.5,acc,right,False,2,1,6,ret,1,10,1,"['2', '2', '1', '3', '1', '3']","[105.33238260000144, 106.66035850000117, 106.82834039999943, 108.22848910000175, 108.4363869000008, 108.6683508999995]",5,6,# # # # # #,None,105.33238260000144,106.66035850000117,106.82834039999943,108.22848910000175,108.4363869000008,108.6683508999995,0.45990399999936926,1.3279758999997284,0.16798189999826718,1.400148700002319,0.20789779999904567,0.23196399999869755
132,20,0.0,2,False,0.0,None,right,False,2,1,0,enc,0,0,0,[],[],5,6,3 4 2 3 1 4,4,0.0,0.0,0.0,0.0,0.0,0.0,0,0.0,0.0,0.0,0.0,0.0
133,21,6.7279248,2,True,0.5,acc,right,True,2,1,4,ret,1,4,0,"['4', '1', '4', '2', '4', '1']","[119.2283912999992, 120.26835829999982, 122.33233530000143, 123.26833110000007, 125.74828709999929, 125.95631610000055]",5,6,# # # # # #,None,119.2283912999992,120.26835829999982,122.33233530000143,123.26833110000007,125.74828709999929,125.95631610000055,4.060040399999707,1.0399670000006154,2.063977000001614,0.9359957999986364,2.47995599999922,0.208029000001261
134,22,0.0,3,False,0.0,None,right,False,2,1,0,enc,0,0,0,[],[],5,6,2 3 3 3 4 2,6,0.0,0.0,0.0,0.0,0.0,0.0,0,0.0,0.0,0.0,0.0,0.0
135,23,7.8082002,3,True,0.5,acc,right,True,2,1,4,ret,1,4,0,"['2', '4', '2', '3', '2', '2']","[133.74033380000037, 134.19630719999986, 134.8042439000019, 137.75630499999897, 141.40440390000003, 141.54853400000138]",5,6,# # # # # #,None,133.74033380000037,134.19630719999986,134.8042439000019,137.75630499999897,141.40440390000003,141.54853400000138,1.284017699999822,0.45597339999949327,0.6079367000020284,2.9520610999970813,3.6480989000010595,0.14413010000134818
136,0,0.0,2,False,0.0,None,right,False,2,1,0,enc,0,0,1,[],[],6,6,2 3 1 1 2 3,4,0.0,0.0,0.0,0.0,0.0,0.0,0,0.0,0.0,0.0,0.0,0.0
137,1,1.0956677,2,True,0.5,acc,right,False,2,1,6,ret,1,10,1,"['2', '3', '1', '1', '2', '3']","[7.205764700000145, 7.373437400001421, 7.7657862000014575, 7.901401800001622, 8.125490700000228, 8.301432399999612]",6,6,# # # # # #,None,7.205764700000145,7.373437400001421,7.7657862000014575,7.901401800001622,8.125490700000228,8.301432399999612,NaN,0.1676727000012761,0.39234880000003614,0.1356156000001647,0.22408889999860548,0.17594169999938458
138,2,0.0,3,False,0.0,None,right,False,2,1,0,enc,0,0,1,[],[],6,6,2 3 3 4 2 2,6,0.0,0.0,0.0,0.0,0.0,0.0,0,0.0,0.0,0.0,0.0,0.0
139,3,1.3533479,3,True,0.5,acc,right,False,2,1,6,ret,1,10,1,"['2', '3', '3', '4', '2', '2']","[14.973322900001222, 15.229353499998979, 15.381393700001354, 15.805453600001783, 16.197300300002098, 16.32667080000101]",6,6,# # # # # #,None,14.973322900001222,15.229353499998979,15.381393700001354,15.805453600001783,16.197300300002098,16.32667080000101,0.17189050000160933,0.25603059999775724,0.15204020000237506,0.4240599000004295,0.39184670000031474,0.12937049999891315
140,4,0.0,2,False,0.0,None,right,False,2,1,0,enc,0,0,0,[],[],6,6,3 1 2 4 4 4,4,0.0,0.0,0.0,0.0,0.0,0.0,0,0.0,0.0,0.0,0.0,0.0
141,5,3.9517791,2,True,0.5,acc,right,False,2,1,6,ret,1,10,0,"['4', '4', '4', '2', '1', '3']","[25.173480199999176, 25.509405400000105, 26.06132670000079, 26.893404599999485, 28.853369399999792, 29.125259299999016]",6,6,# # # # # #,None,25.173480199999176,25.509405400000105,26.06132670000079,26.893404599999485,28.853369399999792,29.125259299999016,2.3468093999981647,0.3359252000009292,0.5519213000006857,0.8320778999986942,1.9599648000003072,0.2718898999992234
142,6,0.0,3,False,0.0,None,right,False,2,1,0,enc,0,0,1,[],[],6,6,3 3 1 3 2 2,6,0.0,0.0,0.0,0.0,0.0,0.0,0,0.0,0.0,0.0,0.0,0.0
143,7,1.4401276,3,True,0.5,acc,right,False,2,1,6,ret,1,10,1,"['3', '3', '1', '3', '2', '2']","[36.02123550000033, 36.181421400000545, 36.46940390000236, 37.07735650000177, 37.31847969999944, 37.46136309999929]",6,6,# # # # # #,None,36.02123550000033,36.181421400000545,36.46940390000236,37.07735650000177,37.31847969999944,37.46136309999929,0.3959762000013143,0.16018590000021504,0.28798250000181724,0.6079525999994075,0.2411231999976735,0.142883399999846
144,8,0.0,2,False,0.0,None,right,False,2,1,0,enc,0,0,1,[],[],6,6,1 2 2 2 4 1,4,0.0,0.0,0.0,0.0,0.0,0.0,0,0.0,0.0,0.0,0.0,0.0
145,9,1.5038456,2,True,0.5,acc,right,False,2,1,6,ret,1,10,1,"['1', '2', '2', '2', '4', '1']","[46.477368800002296, 46.66135589999976, 47.19728849999956, 47.33323790000213, 47.781243800000084, 47.9812144000025]",6,6,# # # # # #,None,46.477368800002296,46.66135589999976,47.19728849999956,47.33323790000213,47.781243800000084,47.9812144000025,2.5160057000030065,0.18398709999746643,0.5359325999997964,0.13594940000257338,0.44800589999795193,0.19997060000241618
146,10,0.0,3,False,0.0,None,right,False,2,1,0,enc,0,0,1,[],[],6,6,3 1 4 4 2 4,6,0.0,0.0,0.0,0.0,0.0,0.0,0,0.0,0.0,0.0,0.0,0.0
147,11,2.1360015,3,True,0.5,acc,right,False,2,1,6,ret,1,10,1,"['3', '1', '4', '4', '2', '4']","[55.16523800000141, 55.36525320000146, 55.813252800002374, 56.71725610000067, 56.98130780000065, 57.30123950000052]",6,6,# # # # # #,None,55.16523800000141,55.36525320000146,55.813252800002374,56.71725610000067,56.98130780000065,57.30123950000052,0.684023599998909,0.20001520000005257,0.4479996000009123,0.9040032999982941,0.2640516999999818,0.31993169999987003
148,12,0.0,3,False,0.0,None,right,False,2,1,0,enc,0,0,0,[],[],6,6,3 4 1 3 4 2,6,0.0,0.0,0.0,0.0,0.0,0.0,0,0.0,0.0,0.0,0.0,0.0
149,13,3.5191598,3,True,0.5,acc,right,False,2,1,6,ret,1,10,0,"['2', '4', '3', '1', '4', '3']","[64.81409239999994, 65.96520690000034, 66.32533260000127, 67.63042960000166, 68.10917510000218, 68.33325220000188]",6,6,# # # # # #,None,64.81409239999994,65.96520690000034,66.32533260000127,67.63042960000166,68.10917510000218,68.33325220000188,1.012852899999416,1.1511145000004035,0.36012570000093547,1.3050970000003872,0.47874550000051386,0.22407709999970393
150,14,0.0,3,False,0.0,None,right,False,2,1,0,enc,0,0,0,[],[],6,6,1 2 1 3 1 1,6,0.0,0.0,0.0,0.0,0.0,0.0,0,0.0,0.0,0.0,0.0,0.0
151,15,1.5440572,3,True,0.5,acc,right,False,2,1,6,ret,1,10,0,"['1', '1', '3', '1', '2', '1']","[75.63728170000104, 75.77331780000168, 76.13315200000216, 76.81325780000043, 77.02121049999914, 77.18133890000172]",6,6,# # # # # #,None,75.63728170000104,75.77331780000168,76.13315200000216,76.81325780000043,77.02121049999914,77.18133890000172,0.8040294999991602,0.13603610000063782,0.3598342000004777,0.6801057999982731,0.2079526999987138,0.1601284000025771
152,16,0.0,2,False,0.0,None,right,False,2,1,0,enc,0,0,1,[],[],6,6,2 1 4 3 3 2,4,0.0,0.0,0.0,0.0,0.0,0.0,0,0.0,0.0,0.0,0.0,0.0
153,17,2.1919525,2,True,0.5,acc,right,False,2,1,6,ret,1,10,1,"['2', '1', '4', '3', '3', '2']","[85.85318910000206, 86.02120510000168, 86.70928520000234, 86.88585890000104, 87.88524959999995, 88.04514159999962]",6,6,# # # # # #,None,85.85318910000206,86.02120510000168,86.70928520000234,86.88585890000104,87.88524959999995,88.04514159999962,2.1718502000003355,0.1680159999996249,0.6880801000006613,0.17657369999869843,0.9993906999989122,0.1598919999996724
154,18,0.0,2,False,0.0,None,right,False,2,1,0,enc,0,0,0,[],[],6,6,1 4 4 1 2 3,4,0.0,0.0,0.0,0.0,0.0,0.0,0,0.0,0.0,0.0,0.0,0.0
155,19,5.2237851,2,True,0.5,acc,right,False,2,1,6,ret,1,10,0,"['3', '2', '1', '4', '4', '1']","[97.57346850000249, 97.7412344000004, 100.9252086000015, 101.34117780000088, 102.42142080000121, 102.79725360000157]",6,6,# # # # # #,None,97.57346850000249,97.7412344000004,100.9252086000015,101.34117780000088,102.42142080000121,102.79725360000157,3.0283269000028668,0.16776589999790303,3.183974200001103,0.4159691999993811,1.080243000000337,0.375832800000353
156,20,0.0,2,False,0.0,None,right,False,2,1,0,enc,0,0,0,[],[],6,6,2 1 2 3 4 4,4,0.0,0.0,0.0,0.0,0.0,0.0,0,0.0,0.0,0.0,0.0,0.0
157,21,2.7281244,2,True,0.5,acc,right,False,2,1,6,ret,1,10,0,"['4', '4', '3', '2', '1', '2']","[112.82117350000044, 112.96508080000058, 114.39714300000196, 114.54919169999994, 115.38121970000066, 115.54929790000097]",6,6,# # # # # #,None,112.82117350000044,112.96508080000058,114.39714300000196,114.54919169999994,115.38121970000066,115.54929790000097,3.523919899998873,0.14390730000013718,1.4320622000013827,0.15204869999797666,0.8320280000007187,0.16807820000030915
158,22,0.0,3,False,0.0,None,right,False,2,1,0,enc,0,0,0,[],[],6,6,3 1 3 4 2 3,6,0.0,0.0,0.0,0.0,0.0,0.0,0,0.0,0.0,0.0,0.0,0.0
159,23,1.8001028,3,True,0.5,acc,right,False,2,1,6,ret,1,10,0,"['3', '2', '4', '3', '1', '3']","[122.96514740000202, 123.20520699999906, 123.6532795000021, 124.37310910000087, 124.56516209999972, 124.7652502000019]",6,6,# # # # # #,None,122.96514740000202,123.20520699999906,123.6532795000021,124.37310910000087,124.56516209999972,124.7652502000019,0.9158495000010589,0.24005959999703919,0.4480725000030361,0.7198295999987749,0.19205299999885028,0.20008810000217636
160,0,0.0,2,False,0.0,None,right,False,2,1,0,enc,0,0,1,[],[],7,6,2 4 4 2 1 3,4,0.0,0.0,0.0,0.0,0.0,0.0,0,0.0,0.0,0.0,0.0,0.0
161,1,1.4398965,2,True,0.5,acc,right,False,2,1,6,ret,1,10,1,"['2', '4', '4', '2', '1', '3']","[7.179149399999005, 7.619092099997943, 7.779128299996955, 8.155034499999601, 8.435079299997597, 8.619045899999037]",7,6,# # # # # #,None,7.179149399999005,7.619092099997943,7.779128299996955,8.155034499999601,8.435079299997597,8.619045899999037,NaN,0.4399426999989373,0.16003619999901275,0.3759062000026461,0.28004479999799514,0.18396660000144038
162,2,0.0,3,False,0.0,None,right,False,2,1,0,enc,0,0,1,[],[],7,6,2 4 3 1 4 4,6,0.0,0.0,0.0,0.0,0.0,0.0,0,0.0,0.0,0.0,0.0,0.0
163,3,2.319838,3,True,0.5,acc,right,False,2,1,6,ret,1,10,1,"['2', '4', '3', '1', '4', '4']","[15.411210899997968, 15.79519629999777, 16.779328799999348, 17.227156199998717, 17.595097699999315, 17.731048899997404]",7,6,# # # # # #,None,15.411210899997968,15.79519629999777,16.779328799999348,17.227156199998717,17.595097699999315,17.731048899997404,0.2921649999989313,0.3839853999998013,0.9841325000015786,0.44782739999936894,0.36794150000059744,0.13595119999808958
164,4,0.0,3,False,0.0,None,right,False,2,1,0,enc,0,0,1,[],[],7,6,3 3 4 4 4 1,6,0.0,0.0,0.0,0.0,0.0,0.0,0,0.0,0.0,0.0,0.0,0.0
165,5,11.1531103,3,True,0.5,acc,right,True,2,1,5,ret,1,5,1,"['1', '3', '4', '4', '4', '1']","[19.26603149999937, 27.691057799998816, 27.94707439999911, 29.68305959999998, 29.827075599998352, 30.419141799997305]",7,6,# # # # # #,None,19.26603149999937,27.691057799998816,27.94707439999911,29.68305959999998,29.827075599998352,30.419141799997305,-4.9650173999980325,8.425026299999445,0.2560166000002937,1.7359852000008686,0.14401599999837345,0.5920661999989534
166,6,0.0,2,False,0.0,None,right,False,2,1,0,enc,0,0,1,[],[],7,6,4 1 2 3 3 2,4,0.0,0.0,0.0,0.0,0.0,0.0,0,0.0,0.0,0.0,0.0,0.0
167,7,1.2159203,2,True,0.5,acc,right,False,2,1,6,ret,1,10,1,"['4', '1', '2', '3', '3', '2']","[39.2911924, 39.5229803000002, 39.731061399998, 39.92312619999939, 40.33106169999883, 40.50711269999738]",7,6,# # # # # #,None,39.2911924,39.5229803000002,39.731061399998,39.92312619999939,40.33106169999883,40.50711269999738,2.3720506000026944,0.23178790000019944,0.20808109999779845,0.1920648000013898,0.40793549999943934,0.17605099999855156
168,8,0.0,3,False,0.0,None,right,False,2,1,0,enc,0,0,0,[],[],7,6,3 4 2 1 2 2,6,0.0,0.0,0.0,0.0,0.0,0.0,0,0.0,0.0,0.0,0.0,0.0
169,9,4.0079137,3,True,0.5,acc,right,False,2,1,6,ret,1,10,0,"['2', '2', '1', '2', '4', '3']","[47.18713619999835, 47.315063799997006, 47.531196299998555, 49.45113369999672, 50.94702479999978, 51.195049899997684]",7,6,# # # # # #,None,47.18713619999835,47.315063799997006,47.531196299998555,49.45113369999672,50.94702479999978,51.195049899997684,0.18002350000097067,0.12792759999865666,0.2161325000015495,1.9199373999981617,1.495891100003064,0.24802509999790345
170,10,0.0,2,False,0.0,None,right,False,2,1,0,enc,0,0,0,[],[],7,6,4 4 3 4 3 3,4,0.0,0.0,0.0,0.0,0.0,0.0,0,0.0,0.0,0.0,0.0,0.0
171,11,3.4960096,2,True,0.5,acc,right,False,2,1,6,ret,1,10,0,"['3', '3', '4', '3', '4', '4']","[60.83501519999845, 60.987032299999555, 63.43519679999736, 63.603257299997495, 64.20302979999906, 64.33102479999798]",7,6,# # # # # #,None,60.83501519999845,60.987032299999555,63.43519679999736,63.603257299997495,64.20302979999906,64.33102479999798,3.1399653000007675,0.15201710000110324,2.4481644999978016,0.16806050000013784,0.5997725000015635,0.1279949999989185
172,12,0.0,2,False,0.0,None,right,False,2,1,0,enc,0,0,0,[],[],7,6,4 1 4 1 4 2,4,0.0,0.0,0.0,0.0,0.0,0.0,0,0.0,0.0,0.0,0.0,0.0
173,13,1.7999173,2,True,0.5,acc,right,False,2,1,6,ret,1,10,0,"['2', '4', '1', '4', '1', '4']","[72.97908639999878, 73.40299999999843, 73.7790359999999, 74.16301109999768, 74.41902069999924, 74.7790036999977]",7,6,# # # # # #,None,72.97908639999878,73.40299999999843,73.7790359999999,74.16301109999768,74.41902069999924,74.7790036999977,2.1480616000008013,0.4239135999996506,0.3760360000014771,0.3839750999977696,0.2560096000015619,0.35998299999846495
174,14,0.0,3,False,0.0,None,right,False,2,1,0,enc,0,0,1,[],[],7,6,2 1 4 3 1 2,6,0.0,0.0,0.0,0.0,0.0,0.0,0,0.0,0.0,0.0,0.0,0.0
175,15,1.5921389,3,True,0.5,acc,right,False,2,1,6,ret,1,10,1,"['2', '1', '4', '3', '1', '2']","[81.4189738999994, 81.57109229999696, 82.21097929999814, 82.6349519999967, 82.81906709999748, 83.01111279999895]",7,6,# # # # # #,None,81.4189738999994,81.57109229999696,82.21097929999814,82.6349519999967,82.81906709999748,83.01111279999895,0.13997020000169869,0.15211839999756194,0.6398870000011811,0.4239726999985578,0.18411510000078124,0.19204570000147214
176,16,0.0,2,False,0.0,None,right,False,2,1,0,enc,0,0,0,[],[],7,6,4 4 4 2 4 2,4,0.0,0.0,0.0,0.0,0.0,0.0,0,0.0,0.0,0.0,0.0,0.0
177,17,1.4480097,2,True,0.5,acc,right,False,2,1,6,ret,1,10,0,"['2', '4', '2', '4', '4', '4']","[92.55489659999876, 92.97903489999953, 93.25094790000003, 93.51510639999833, 93.85910129999684, 94.00290630000018]",7,6,# # # # # #,None,92.55489659999876,92.97903489999953,93.25094790000003,93.51510639999833,93.85910129999684,94.00290630000018,3.043783799999801,0.42413830000077724,0.27191300000049523,0.26415849999830243,0.3439948999985063,0.14380500000333996
178,18,0.0,3,False,0.0,None,right,False,2,1,0,enc,0,0,0,[],[],7,6,3 1 4 4 2 4,6,0.0,0.0,0.0,0.0,0.0,0.0,0,0.0,0.0,0.0,0.0,0.0
179,19,3.0558997,3,True,0.5,acc,right,False,2,1,6,ret,1,10,0,"['4', '2', '4', '4', '1', '3']","[101.29103329999998, 101.76297949999935, 102.0669369999996, 103.52299439999842, 104.09094819999882, 104.34693299999708]",7,6,# # # # # #,None,101.29103329999998,101.76297949999935,102.0669369999996,103.52299439999842,104.09094819999882,104.34693299999708,0.788126999999804,0.4719461999993655,0.30395750000025146,1.4560573999988264,0.5679538000003959,0.2559847999982594
180,20,0.0,3,False,0.0,None,right,False,2,1,0,enc,0,0,0,[],[],7,6,1 4 2 2 3 4,6,0.0,0.0,0.0,0.0,0.0,0.0,0,0.0,0.0,0.0,0.0,0.0
181,21,2.3600266,3,True,0.5,acc,right,False,2,1,6,ret,1,10,0,"['4', '3', '2', '2', '4', '1']","[113.51488409999729, 113.95486609999716, 114.13893189999726, 115.2669528999977, 115.57905589999791, 115.87491069999669]",7,6,# # # # # #,None,113.51488409999729,113.95486609999716,114.13893189999726,115.2669528999977,115.57905589999791,115.87491069999669,2.6679511000002094,0.43998199999987264,0.18406580000009853,1.1280210000004445,0.3121030000002065,0.2958547999987786
182,22,0.0,2,False,0.0,None,right,False,2,1,0,enc,0,0,1,[],[],7,6,1 1 2 1 1 3,4,0.0,0.0,0.0,0.0,0.0,0.0,0,0.0,0.0,0.0,0.0,0.0
183,23,1.1599438,2,True,0.5,acc,right,False,2,1,6,ret,1,10,1,"['1', '1', '2', '1', '1', '3']","[124.33898859999681, 124.47492710000006, 124.72289389999787, 124.8829276999968, 125.28292949999741, 125.49893239999801]",7,6,# # # # # #,None,124.33898859999681,124.47492710000006,124.72289389999787,124.8829276999968,125.28292949999741,125.49893239999801,1.9640779000001203,0.13593850000324892,0.2479667999978119,0.16003379999892786,0.40000180000060936,0.2160029000006034
184,0,0.0,2,False,0.0,None,right,False,2,1,0,enc,0,0,1,[],[],8,6,4 2 3 2 2 2,4,0.0,0.0,0.0,0.0,0.0,0.0,0,0.0,0.0,0.0,0.0,0.0
185,1,1.2557618,2,True,0.5,acc,right,False,2,1,6,ret,1,10,1,"['4', '2', '3', '2', '2', '2']","[7.870817700000771, 8.087008099999366, 8.510814299999765, 8.694644700000936, 9.00675979999869, 9.126579499999934]",8,6,# # # # # #,None,7.870817700000771,8.087008099999366,8.510814299999765,8.694644700000936,9.00675979999869,9.126579499999934,NaN,0.21619039999859524,0.42380620000039926,0.18383040000117035,0.31211509999775444,0.1198197000012442
186,2,0.0,2,False,0.0,None,right,False,2,1,0,enc,0,0,1,[],[],8,6,1 1 1 3 1 4,4,0.0,0.0,0.0,0.0,0.0,0.0,0,0.0,0.0,0.0,0.0,0.0
187,3,1.3603038,2,True,0.5,acc,right,False,2,1,6,ret,1,10,1,"['1', '1', '1', '3', '1', '4']","[17.69490919999953, 17.83861210000032, 18.254627899998013, 18.558719900000142, 18.78265079999983, 19.05521299999964]",8,6,# # # # # #,None,17.69490919999953,17.83861210000032,18.254627899998013,18.558719900000142,18.78265079999983,19.05521299999964,2.0683296999995946,0.14370290000078967,0.41601579999769456,0.30409200000212877,0.22393089999968652,0.27256219999981113
188,4,0.0,2,False,0.0,None,right,False,2,1,0,enc,0,0,0,[],[],8,6,2 1 2 1 3 4,4,0.0,0.0,0.0,0.0,0.0,0.0,0,0.0,0.0,0.0,0.0,0.0
189,5,2.079716,2,True,0.5,acc,right,False,2,1,6,ret,1,10,0,"['4', '3', '1', '2', '1', '2']","[27.98289819999991, 28.16677290000007, 29.430571000000782, 29.61613859999852, 29.871311299997615, 30.062614200000098]",8,6,# # # # # #,None,27.98289819999991,28.16677290000007,29.430571000000782,29.61613859999852,29.871311299997615,30.062614200000098,2.427685200000269,0.18387470000016037,1.263798100000713,0.1855675999977393,0.2551726999990933,0.1913029000024835
190,6,0.0,2,False,0.0,None,right,False,2,1,0,enc,0,0,1,[],[],8,6,1 3 1 4 2 3,4,0.0,0.0,0.0,0.0,0.0,0.0,0,0.0,0.0,0.0,0.0,0.0
191,7,1.5199212,2,True,0.5,acc,right,False,2,1,6,ret,1,10,1,"['1', '3', '1', '4', '2', '3']","[38.61481780000031, 38.83866169999965, 39.10265530000106, 39.48666179999782, 39.974643800000194, 40.13473900000099]",8,6,# # # # # #,None,38.61481780000031,38.83866169999965,39.10265530000106,39.48666179999782,39.974643800000194,40.13473900000099,2.0522036000002117,0.22384389999933774,0.26399360000141314,0.38400649999675807,0.48798200000237557,0.16009520000079647
192,8,0.0,3,False,0.0,None,right,False,2,1,0,enc,0,0,1,[],[],8,6,1 4 3 3 2 2,6,0.0,0.0,0.0,0.0,0.0,0.0,0,0.0,0.0,0.0,0.0,0.0
193,9,1.815844,3,True,0.5,acc,right,False,2,1,6,ret,1,10,1,"['1', '4', '3', '3', '2', '2']","[46.79072989999986, 47.31877389999863, 47.70269410000037, 48.0625770000006, 48.454613099998824, 48.60657390000051]",8,6,# # # # # #,None,46.79072989999986,47.31877389999863,47.70269410000037,48.0625770000006,48.454613099998824,48.60657390000051,0.15599089999886928,0.528043999998772,0.38392020000173943,0.3598829000002297,0.3920360999982222,0.15196080000168877
194,10,0.0,2,False,0.0,None,right,False,2,1,0,enc,0,0,0,[],[],8,6,4 3 3 4 4 1,4,0.0,0.0,0.0,0.0,0.0,0.0,0,0.0,0.0,0.0,0.0,0.0
195,11,9.264628,2,True,0.5,acc,right,False,2,1,6,ret,1,10,0,"['1', '4', '4', '3', '3', '4']","[57.76707479999823, 58.20664399999805, 63.75061669999923, 63.9586481999977, 66.83056360000046, 67.03170279999904]",8,6,# # # # # #,None,57.76707479999823,58.20664399999805,63.75061669999923,63.9586481999977,66.83056360000046,67.03170279999904,2.6605008999977144,0.43956919999982347,5.543972700001177,0.20803149999846937,2.871915400002763,0.201139199998579
196,12,0.0,2,False,0.0,None,right,False,2,1,0,enc,0,0,0,[],[],8,6,3 1 3 2 4 2,4,0.0,0.0,0.0,0.0,0.0,0.0,0,0.0,0.0,0.0,0.0,0.0
197,13,2.5677919,2,True,0.5,acc,right,False,2,1,6,ret,1,10,0,"['2', '4', '2', '3', '1', '3']","[76.00676259999818, 76.44655829999829, 77.35048499999903, 77.55050990000018, 78.35885789999884, 78.57455449999907]",8,6,# # # # # #,None,76.00676259999818,76.44655829999829,77.35048499999903,77.55050990000018,78.35885789999884,78.57455449999907,2.475059799999144,0.43979570000010426,0.9039267000007385,0.20002490000115358,0.8083479999986594,0.2156966000002285
198,14,0.0,3,False,0.0,None,right,False,2,1,0,enc,0,0,1,[],[],8,6,1 3 2 3 3 3,6,0.0,0.0,0.0,0.0,0.0,0.0,0,0.0,0.0,0.0,0.0,0.0
199,15,1.2159604,3,True,0.5,acc,right,False,2,1,6,ret,1,10,1,"['1', '3', '2', '3', '3', '3']","[85.04680250000092, 85.48665619999883, 85.6945338000005, 85.94257070000094, 86.11063640000066, 86.26276289999805]",8,6,# # # # # #,None,85.04680250000092,85.48665619999883,85.6945338000005,85.94257070000094,86.11063640000066,86.26276289999805,-0.027751999998145038,0.43985369999791146,0.207877600001666,0.24803690000044298,0.16806569999971543,0.1521264999973937
200,16,0.0,3,False,0.0,None,right,False,2,1,0,enc,0,0,1,[],[],8,6,4 2 4 4 2 4,6,0.0,0.0,0.0,0.0,0.0,0.0,0,0.0,0.0,0.0,0.0,0.0
201,17,1.815863,3,True,0.5,acc,right,False,2,1,6,ret,1,10,1,"['4', '2', '4', '4', '2', '4']","[93.26261259999956, 93.5351628999997, 93.78244679999989, 94.16653059999953, 94.71892110000044, 95.07847559999936]",8,6,# # # # # #,None,93.26261259999956,93.5351628999997,93.78244679999989,94.16653059999953,94.71892110000044,95.07847559999936,0.49984970000150497,0.2725503000001481,0.24728390000018408,0.3840837999996438,0.5523905000009108,0.35955449999892153
202,18,0.0,3,False,0.0,None,right,False,2,1,0,enc,0,0,0,[],[],8,6,1 2 2 3 1 1,6,0.0,0.0,0.0,0.0,0.0,0.0,0,0.0,0.0,0.0,0.0,0.0
203,19,1.5920298,3,True,0.5,acc,right,False,2,1,6,ret,1,10,0,"['1', '1', '3', '2', '2', '1']","[102.07048629999917, 102.22243040000103, 102.6306184999994, 103.35053609999886, 103.49445220000052, 103.66251609999745]",8,6,# # # # # #,None,102.07048629999917,102.22243040000103,102.6306184999994,103.35053609999886,103.49445220000052,103.66251609999745,0.49201069999980973,0.151944100001856,0.4081880999983696,0.7199175999994623,0.1439161000016611,0.16806389999692328
204,20,0.0,3,False,0.0,None,right,False,2,1,0,enc,0,0,0,[],[],8,6,2 3 1 1 3 4,6,0.0,0.0,0.0,0.0,0.0,0.0,0,0.0,0.0,0.0,0.0,0.0
205,21,3.4320447,3,True,0.5,acc,right,False,2,1,6,ret,1,10,0,"['4', '3', '1', '1', '3', '2']","[110.67848479999884, 110.91050339999856, 111.23884030000045, 112.73444079999899, 113.72642110000015, 114.11052949999794]",8,6,# # # # # #,None,110.67848479999884,110.91050339999856,111.23884030000045,112.73444079999899,113.72642110000015,114.11052949999794,0.5159687000013946,0.2320185999997193,0.32833690000188653,1.4956004999985453,0.9919803000011598,0.38410839999778545
206,22,0.0,3,False,0.0,None,right,False,2,1,0,enc,0,0,0,[],[],8,6,4 3 2 2 1 3,6,0.0,0.0,0.0,0.0,0.0,0.0,0,0.0,0.0,0.0,0.0,0.0
207,23,3.8568241,3,True,0.5,acc,right,True,2,1,5,ret,1,5,0,"['3', '1', '2', '2', '3', '2']","[121.99837660000048, 122.53418890000103, 122.79043359999923, 125.03933759999927, 125.24631079999745, 125.85520069999984]",8,6,# # # # # #,None,121.99837660000048,122.53418890000103,122.79043359999923,125.03933759999927,125.24631079999745,125.85520069999984,1.3878471000025456,0.5358123000005435,0.25624469999820576,2.2489040000000386,0.2069731999981741,0.6088899000023957
