,Tn,MT,chunk,display_trial_feedback,feedback_dur,feedback_type,hand,is_error,item_dur,iti_dur,number_correct,phase,phase_type,points,recall_dir,response,response_time,run_number,seq_length,seq_str,trial_dur,P1,P2,P3,P4,P5,P6,IPI_0,IPI_1,IPI_2,IPI_3,IPI_4,IPI_5
0,0,0.0,3,False,0.0,None,right,False,2,1,0,enc,0,0,1,[],[],1,6,2 2 2 4 4 3,6,0.0,0.0,0.0,0.0,0.0,0.0,0,0.0,0.0,0.0,0.0,0.0
1,1,12.700424599985125,3,True,0.5,acc,right,True,2,1,3,ret,1,3,1,"['4', '4', '3', '4', '4', '3']","[4.074759200011613, 4.211076400009915, 10.722162299993215, 15.571232400019653, 16.148054799996316, 16.77518379999674]",1,6,# # # # # #,None,4.074759200011613,4.211076400009915,10.722162299993215,15.571232400019653,16.148054799996316,16.77518379999674,-2.425240799988387,0.13631719999830239,6.5110858999833,4.849070100026438,0.5768223999766633,0.6271290000004228
2,2,0.0,3,False,0.0,None,right,False,2,1,0,enc,0,0,1,[],[],1,6,1 3 1 3 1 2,6,0.0,0.0,0.0,0.0,0.0,0.0,0,0.0,0.0,0.0,0.0,0.0
3,3,3.5562164000002667,3,True,0.5,acc,right,True,2,1,4,ret,1,4,1,"['1', '3', '1', '3', '2', '1']","[24.55575180001324, 24.869166200020118, 25.458984199998667, 27.478051300015068, 27.87105149999843, 28.111968200013507]",1,6,# # # # # #,None,24.55575180001324,24.869166200020118,25.458984199998667,27.478051300015068,27.87105149999843,28.111968200013507,1.2805680000165012,0.31341440000687726,0.5898179999785498,2.0190671000164,0.3930001999833621,0.24091670001507737
4,4,0.0,3,False,0.0,None,right,False,2,1,0,enc,0,0,0,[],[],1,6,4 1 4 3 4 3,6,0.0,0.0,0.0,0.0,0.0,0.0,0,0.0,0.0,0.0,0.0,0.0
5,5,3.0816065999970306,3,True,0.5,acc,right,False,2,1,6,ret,1,10,0,"['3', '4', '3', '4', '1', '4']","[36.25222650001524, 36.57101440001861, 37.07519980001962, 38.79902770000626, 39.0951597999956, 39.33383310001227]",1,6,# # # # # #,None,36.25222650001524,36.57101440001861,37.07519980001962,38.79902770000626,39.0951597999956,39.33383310001227,1.640258300001733,0.31878790000337176,0.5041854000010062,1.7238278999866452,0.296132099989336,0.23867330001667142
6,6,0.0,2,False,0.0,None,right,False,2,1,0,enc,0,0,1,[],[],1,6,4 3 4 1 4 4,4,0.0,0.0,0.0,0.0,0.0,0.0,0,0.0,0.0,0.0,0.0,0.0
7,7,2.5246455000014976,2,True,0.5,acc,right,False,2,1,6,ret,1,10,1,"['4', '3', '4', '1', '4', '4']","[49.03627229999984, 49.340003200020874, 50.36893820000114, 50.6648806000012, 51.314223099994706, 51.560917800001334]",1,6,# # # # # #,None,49.03627229999984,49.340003200020874,50.36893820000114,50.6648806000012,51.314223099994706,51.560917800001334,3.202439199987566,0.3037309000210371,1.0289349999802653,0.2959424000000581,0.6493424999935087,0.2466947000066284
8,8,0.0,2,False,0.0,None,right,False,2,1,0,enc,0,0,0,[],[],1,6,4 1 3 3 1 4,4,0.0,0.0,0.0,0.0,0.0,0.0,0,0.0,0.0,0.0,0.0,0.0
9,9,5.848028300009903,2,True,0.5,acc,right,True,2,1,2,ret,1,2,0,"['1', '4', '3', '3', '4', '1']","[60.633188500010874, 61.24720310000703, 63.93021150000277, 64.1838424000016, 66.24885080000968, 66.48121680002077]",1,6,# # # # # #,None,60.633188500010874,61.24720310000703,63.93021150000277,64.1838424000016,66.24885080000968,66.48121680002077,2.5722707000095397,0.6140145999961533,2.6830083999957424,0.25363089999882504,2.0650084000080824,0.23236600001109764
10,10,0.0,2,False,0.0,None,right,False,2,1,0,enc,0,0,0,[],[],1,6,1 3 4 2 2 2,4,0.0,0.0,0.0,0.0,0.0,0.0,0,0.0,0.0,0.0,0.0,0.0
11,11,7.524133800005075,2,True,0.5,acc,right,True,2,1,4,ret,1,4,0,"['2', '2', '4', '2', '3', '1']","[75.36294940000516, 75.59611919999588, 77.5980234000017, 78.20012409999617, 82.61615929999971, 82.88708320001024]",1,6,# # # # # #,None,75.36294940000516,75.59611919999588,77.5980234000017,78.20012409999617,82.61615929999971,82.88708320001024,2.381732599984389,0.23316979999071918,2.0019042000058107,0.6021006999944802,4.4160352000035346,0.2709239000105299
12,12,0.0,3,False,0.0,None,right,False,2,1,0,enc,0,0,0,[],[],1,6,4 1 1 1 4 3,6,0.0,0.0,0.0,0.0,0.0,0.0,0,0.0,0.0,0.0,0.0,0.0
13,13,2.474894100014353,3,True,0.5,acc,right,True,2,1,5,ret,1,5,0,"['3', '4', '1', '1', '4', '4']","[90.20811999999569, 90.46415250000427, 90.84411720000207, 92.18216540000867, 92.43800120000378, 92.68301410001004]",1,6,# # # # # #,None,90.20811999999569,90.46415250000427,90.84411720000207,92.18216540000867,92.43800120000378,92.68301410001004,0.8210367999854498,0.2560325000085868,0.37996469999779947,1.3380482000065967,0.2558357999951113,0.24501290000625886
14,14,0.0,2,False,0.0,None,right,False,2,1,0,enc,0,0,1,[],[],1,6,1 2 3 4 3 1,4,0.0,0.0,0.0,0.0,0.0,0.0,0,0.0,0.0,0.0,0.0,0.0
15,15,5.973663000011584,2,True,0.5,acc,right,True,2,1,3,ret,1,3,1,"['1', '5', '4', '3', '3', '1']","[106.41765059999307, 106.9060301000136, 110.07028990000254, 110.33303390000947, 112.17956200000481, 112.39131360000465]",1,6,# # # # # #,None,106.41765059999307,106.9060301000136,110.07028990000254,110.33303390000947,112.17956200000481,112.39131360000465,7.234636499983026,0.4883795000205282,3.1642597999889404,0.26274400000693277,1.8465280999953393,0.21175159999984317
16,0,0.0,3,False,0.0,None,right,False,2,1,0,enc,0,0,1,[],[],1,6,4 2 2 1 1 2,6,0.0,0.0,0.0,0.0,0.0,0.0,0,0.0,0.0,0.0,0.0,0.0
17,1,2.1774978000030387,3,True,0.5,acc,right,True,2,1,5,ret,1,5,1,"['4', '2', '2', '1', '2', '2']","[5.745213199988939, 6.20063810001011, 6.4608454999979585, 7.412446300004376, 7.682579599990277, 7.922710999991978]",1,6,# # # # # #,None,5.745213199988939,6.20063810001011,6.4608454999979585,7.412446300004376,7.682579599990277,7.922710999991978,NaN,0.4554249000211712,0.2602073999878485,0.9516008000064176,0.2701332999859005,0.24013140000170097
18,2,0.0,3,False,0.0,None,right,False,2,1,0,enc,0,0,1,[],[],1,6,3 3 2 2 3 3,6,0.0,0.0,0.0,0.0,0.0,0.0,0,0.0,0.0,0.0,0.0,0.0
19,3,3.01615480001783,3,True,0.5,acc,right,False,2,1,6,ret,1,10,1,"['3', '3', '2', '2', '3', '3']","[14.693484099989291, 15.277747200016165, 15.820573800010607, 17.10160709999036, 17.448712500015972, 17.70963890000712]",1,6,# # # # # #,None,14.693484099989291,15.277747200016165,15.820573800010607,17.10160709999036,17.448712500015972,17.70963890000712,0.2707730999973137,0.5842631000268739,0.5428265999944415,1.2810332999797538,0.34710540002561174,0.2609263999911491
20,4,0.0,2,False,0.0,None,right,False,2,1,0,enc,0,0,0,[],[],1,6,1 4 4 2 2 1,4,0.0,0.0,0.0,0.0,0.0,0.0,0,0.0,0.0,0.0,0.0,0.0
21,5,6.586216800002147,2,True,0.5,acc,right,True,2,1,5,ret,1,5,0,"['1', '2', '2', '4', '1', '1']","[27.582505200000014, 28.216266400006134, 30.01664119999623, 30.483126200007973, 32.47493190001114, 34.16872200000216]",1,6,# # # # # #,None,27.582505200000014,28.216266400006134,30.01664119999623,30.483126200007973,32.47493190001114,34.16872200000216,3.372866299992893,0.6337612000061199,1.8003747999900952,0.466485000011744,1.9918057000031695,1.6937900999910198
22,6,0.0,3,False,0.0,None,right,False,2,1,0,enc,0,0,0,[],[],1,6,2 3 3 2 4 1,6,0.0,0.0,0.0,0.0,0.0,0.0,0,0.0,0.0,0.0,0.0,0.0
23,7,2.506839300011052,3,True,0.5,acc,right,False,2,1,6,ret,1,10,0,"['1', '4', '2', '3', '3', '2']","[42.780741099995794, 43.0557325000118, 43.79460470000049, 44.67131189999054, 44.94255639999756, 45.287580400006846]",1,6,# # # # # #,None,42.780741099995794,43.0557325000118,43.79460470000049,44.67131189999054,44.94255639999756,45.287580400006846,2.1120190999936312,0.2749914000160061,0.7388721999886911,0.8767071999900509,0.2712445000070147,0.345024000009289
24,8,0.0,2,False,0.0,None,right,False,2,1,0,enc,0,0,0,[],[],1,6,4 3 2 1 3 4,4,0.0,0.0,0.0,0.0,0.0,0.0,0,0.0,0.0,0.0,0.0,0.0
25,9,3.432981000019936,2,True,0.5,acc,right,False,2,1,6,ret,1,10,0,"['4', '3', '1', '2', '3', '4']","[55.35153459999128, 55.685594500013394, 56.491803999990225, 56.755450500000734, 58.5679805999971, 58.78451560001122]",1,6,# # # # # #,None,55.35153459999128,55.685594500013394,56.491803999990225,56.755450500000734,58.5679805999971,58.78451560001122,3.563954199984437,0.33405990002211183,0.8062094999768306,0.26364650001050904,1.8125300999963656,0.21653500001411885
26,10,0.0,2,False,0.0,None,right,False,2,1,0,enc,0,0,1,[],[],1,6,4 3 3 1 1 2,4,0.0,0.0,0.0,0.0,0.0,0.0,0,0.0,0.0,0.0,0.0,0.0
27,11,4.218102499988163,2,True,0.5,acc,right,True,2,1,5,ret,1,5,1,"['4', '3', '2', '1', '1', '2']","[67.953642700013, 69.01469700000598, 70.55955840001116, 70.77661970001645, 72.03058930000407, 72.17174520000117]",1,6,# # # # # #,None,67.953642700013,69.01469700000598,70.55955840001116,70.77661970001645,72.03058930000407,72.17174520000117,2.6691271000017878,1.0610542999929748,1.5448614000051748,0.2170613000052981,1.253969599987613,0.1411558999971021
28,12,0.0,3,False,0.0,None,right,False,2,1,0,enc,0,0,0,[],[],1,6,2 3 4 2 2 1,6,0.0,0.0,0.0,0.0,0.0,0.0,0,0.0,0.0,0.0,0.0,0.0
29,13,4.191129599988926,3,True,0.5,acc,right,False,2,1,6,ret,1,10,0,"['1', '2', '2', '4', '3', '2']","[79.99965820001671, 80.9586501000158, 81.21766080000089, 83.50465519999852, 83.93660260000615, 84.19078780000564]",1,6,# # # # # #,None,79.99965820001671,80.9586501000158,81.21766080000089,83.50465519999852,83.93660260000615,84.19078780000564,1.327913000015542,0.9589918999990914,0.2590106999850832,2.2869943999976385,0.43194740000762977,0.2541851999994833
30,14,0.0,2,False,0.0,None,right,False,2,1,0,enc,0,0,1,[],[],1,6,4 2 3 4 2 1,4,0.0,0.0,0.0,0.0,0.0,0.0,0,0.0,0.0,0.0,0.0,0.0
31,15,3.966276899998775,2,True,0.5,acc,right,True,2,1,3,ret,1,3,1,"['4', '3', '2', '4', '3', '1']","[96.55060809999122, 96.79373050000868, 98.5937688999984, 98.80838349999976, 100.31745890001184, 100.51688499999]",1,6,# # # # # #,None,96.55060809999122,96.79373050000868,98.5937688999984,98.80838349999976,100.31745890001184,100.51688499999,5.859820299985586,0.24312240001745522,1.8000383999897167,0.21461460000136867,1.5090754000120796,0.19942609997815453
32,16,0.0,2,False,0.0,None,right,False,2,1,0,enc,0,0,1,[],[],1,6,1 4 1 3 2 4,4,0.0,0.0,0.0,0.0,0.0,0.0,0,0.0,0.0,0.0,0.0,0.0
33,17,2.5220394999778364,2,True,0.5,acc,right,False,2,1,6,ret,1,10,1,"['1', '4', '1', '3', '2', '4']","[109.40959240001393, 109.61467539999285, 110.11953160000849, 111.16857119998895, 111.65453780000098, 111.93163189999177]",1,6,# # # # # #,None,109.40959240001393,109.61467539999285,110.11953160000849,111.16857119998895,111.65453780000098,111.93163189999177,2.3927074000239372,0.205082999978913,0.504856200015638,1.0490395999804605,0.4859666000120342,0.2770940999907907
34,18,0.0,3,False,0.0,None,right,False,2,1,0,enc,0,0,0,[],[],1,6,2 3 3 3 3 4,6,0.0,0.0,0.0,0.0,0.0,0.0,0,0.0,0.0,0.0,0.0,0.0
35,19,4.445946699997876,3,True,0.5,acc,right,False,2,1,6,ret,1,10,0,"['4', '3', '3', '3', '3', '2']","[118.49961339999572, 118.82759130001068, 119.08755500000552, 122.37064619999728, 122.72789509998984, 122.9455600999936]",1,6,# # # # # #,None,118.49961339999572,118.82759130001068,119.08755500000552,122.37064619999728,122.72789509998984,122.9455600999936,0.06798150000395253,0.3279779000149574,0.2599636999948416,3.283091199991759,0.3572488999925554,0.21766500000376254
36,20,0.0,3,False,0.0,None,right,False,2,1,0,enc,0,0,1,[],[],1,6,1 1 3 2 2 4,6,0.0,0.0,0.0,0.0,0.0,0.0,0,0.0,0.0,0.0,0.0,0.0
37,21,2.114209599996684,3,True,0.5,acc,right,False,2,1,6,ret,1,10,1,"['1', '1', '3', '2', '2', '4']","[130.32457610001438, 130.5945406999963, 131.422498800006, 131.95477650000248, 132.19365420000395, 132.43878570001107]",1,6,# # # # # #,None,130.32457610001438,130.5945406999963,131.422498800006,131.95477650000248,132.19365420000395,132.43878570001107,0.8790160000207834,0.26996459998190403,0.8279581000097096,0.5322776999964844,0.23887770000146702,0.24513150000711903
38,22,0.0,2,False,0.0,None,right,False,2,1,0,enc,0,0,0,[],[],1,6,4 1 1 1 4 4,4,0.0,0.0,0.0,0.0,0.0,0.0,0,0.0,0.0,0.0,0.0,0.0
39,23,3.9061936999787576,2,True,0.5,acc,right,False,2,1,6,ret,1,10,0,"['4', '4', '1', '1', '1', '4']","[141.4405980000156, 141.7839873000048, 142.9846053000074, 143.21033860000898, 145.15009710000595, 145.34679169999436]",1,6,# # # # # #,None,141.4405980000156,141.7839873000048,142.9846053000074,143.21033860000898,145.15009710000595,145.34679169999436,2.5018123000045307,0.3433892999892123,1.200618000002578,0.2257333000015933,1.9397584999969695,0.19669459998840466
40,0,0.0,3,False,0.0,None,right,False,2,1,0,enc,0,0,1,[],[],2,6,3 2 2 3 2 3,6,0.0,0.0,0.0,0.0,0.0,0.0,0,0.0,0.0,0.0,0.0,0.0
41,1,2.5638713000225835,3,True,0.5,acc,right,False,2,1,6,ret,1,10,1,"['3', '2', '2', '3', '2', '3']","[4.807787199999439, 5.16154450000613, 5.512545100005809, 6.900626300019212, 7.112943200016161, 7.371658500022022]",2,6,# # # # # #,None,4.807787199999439,5.16154450000613,5.512545100005809,6.900626300019212,7.112943200016161,7.371658500022022,NaN,0.35375730000669137,0.35100059999967925,1.3880812000134028,0.21231689999694936,0.2587153000058606
42,2,0.0,2,False,0.0,None,right,False,2,1,0,enc,0,0,1,[],[],2,6,2 4 4 4 4 1,4,0.0,0.0,0.0,0.0,0.0,0.0,0,0.0,0.0,0.0,0.0,0.0
43,3,2.5631582000060007,2,True,0.5,acc,right,False,2,1,6,ret,1,10,1,"['2', '4', '4', '4', '4', '1']","[16.239611900004093, 16.795622500008903, 17.827287799998885, 18.121567800000776, 18.581658000010066, 18.802770100010093]",2,6,# # # # # #,None,16.239611900004093,16.795622500008903,17.827287799998885,18.121567800000776,18.581658000010066,18.802770100010093,2.3679533999820706,0.5560106000048108,1.0316652999899816,0.2942800000018906,0.46009020000929013,0.22111210000002757
44,4,0.0,3,False,0.0,None,right,False,2,1,0,enc,0,0,1,[],[],2,6,1 4 1 4 4 3,6,0.0,0.0,0.0,0.0,0.0,0.0,0,0.0,0.0,0.0,0.0,0.0
45,5,5.019188400008716,3,True,0.5,acc,right,True,2,1,2,ret,1,2,1,"['4', '1', '4', '4', '1', '3']","[26.31368069999735, 26.562675200024387, 28.979670200002147, 29.297658800001955, 31.15060380002251, 31.332869100006064]",2,6,# # # # # #,None,26.31368069999735,26.562675200024387,28.979670200002147,29.297658800001955,31.15060380002251,31.332869100006064,1.0109105999872554,0.24899450002703816,2.41699499997776,0.3179885999998078,1.8529450000205543,0.18226529998355545
46,6,0.0,3,False,0.0,None,right,False,2,1,0,enc,0,0,0,[],[],2,6,1 3 1 3 1 3,6,0.0,0.0,0.0,0.0,0.0,0.0,0,0.0,0.0,0.0,0.0,0.0
47,7,2.016946000017924,3,True,0.5,acc,right,False,2,1,6,ret,1,10,0,"['3', '1', '3', '1', '3', '1']","[39.71463410000433, 39.96271130000241, 40.46055620000698, 41.32970510001178, 41.47855200001504, 41.731580100022256]",2,6,# # # # # #,None,39.71463410000433,39.96271130000241,40.46055620000698,41.32970510001178,41.47855200001504,41.731580100022256,1.8817649999982677,0.24807719999807887,0.4978449000045657,0.8691489000048023,0.14884690000326373,0.25302810000721365
48,8,0.0,2,False,0.0,None,right,False,2,1,0,enc,0,0,0,[],[],2,6,2 1 4 4 4 2,4,0.0,0.0,0.0,0.0,0.0,0.0,0,0.0,0.0,0.0,0.0,0.0
49,9,6.329077500005951,2,True,0.5,acc,right,True,2,1,4,ret,1,4,0,"['2', '4', '1', '4', '1', '4']","[50.989760299999034, 51.528632400004426, 53.372631400008686, 53.8035235000134, 57.126743300003, 57.318837800004985]",2,6,# # # # # #,None,50.989760299999034,51.528632400004426,53.372631400008686,53.8035235000134,57.126743300003,57.318837800004985,2.7581801999767777,0.538872100005392,1.8439990000042599,0.4308921000047121,3.3232197999896016,0.19209450000198558
50,10,0.0,3,False,0.0,None,right,False,2,1,0,enc,0,0,0,[],[],2,6,3 3 4 1 2 3,6,0.0,0.0,0.0,0.0,0.0,0.0,0,0.0,0.0,0.0,0.0,0.0
51,11,2.230690800002776,3,True,0.5,acc,right,True,2,1,4,ret,1,4,0,"['3', '2', '1', '3', '3', '4']","[64.63989580000634, 64.88564849999966, 65.43563320001704, 66.33858390001114, 66.57566870001028, 66.87058660000912]",2,6,# # # # # #,None,64.63989580000634,64.88564849999966,65.43563320001704,66.33858390001114,66.57566870001028,66.87058660000912,0.8210580000013579,0.24575269999331795,0.5499847000173759,0.9029506999941077,0.23708479999913834,0.2949178999988362
52,12,0.0,2,False,0.0,None,right,False,2,1,0,enc,0,0,0,[],[],2,6,4 2 2 2 3 1,4,0.0,0.0,0.0,0.0,0.0,0.0,0,0.0,0.0,0.0,0.0,0.0
53,13,3.929993400000967,2,True,0.5,acc,right,False,2,1,6,ret,1,10,0,"['1', '3', '2', '2', '2', '4']","[76.45362290000776, 76.99464580000495, 77.40252400000463, 77.6373459000024, 80.10277110000607, 80.38361630000873]",2,6,# # # # # #,None,76.45362290000776,76.99464580000495,77.40252400000463,77.6373459000024,80.10277110000607,80.38361630000873,3.083036299998639,0.5410228999971878,0.40787819999968633,0.23482189999776892,2.465425200003665,0.2808452000026591
54,14,0.0,3,False,0.0,None,right,False,2,1,0,enc,0,0,1,[],[],2,6,3 2 2 1 1 4,6,0.0,0.0,0.0,0.0,0.0,0.0,0,0.0,0.0,0.0,0.0,0.0
55,15,1.6006971999886446,3,True,0.5,acc,right,True,2,1,4,ret,1,4,1,"['3', '2', '2', '1', '4', '1']","[88.71275780000724, 88.94171539999661, 89.20051750002312, 89.77259460001369, 89.97145660000388, 90.31345499999588]",2,6,# # # # # #,None,88.71275780000724,88.94171539999661,89.20051750002312,89.77259460001369,89.97145660000388,90.31345499999588,1.8291414999985136,0.22895759998937137,0.2588021000265144,0.5720770999905653,0.19886199999018572,0.34199839999200776
56,16,0.0,2,False,0.0,None,right,False,2,1,0,enc,0,0,0,[],[],2,6,4 3 2 1 2 2,4,0.0,0.0,0.0,0.0,0.0,0.0,0,0.0,0.0,0.0,0.0,0.0
57,17,4.347290800011252,2,True,0.5,acc,right,True,2,1,4,ret,1,4,0,"['2', '2', '1', '3', '1', '4']","[99.51554250001209, 99.76753030001419, 100.89570500000264, 101.61444110001321, 103.6744827000075, 103.86283330002334]",2,6,# # # # # #,None,99.51554250001209,99.76753030001419,100.89570500000264,101.61444110001321,103.6744827000075,103.86283330002334,2.702087500016205,0.2519878000020981,1.128174699988449,0.7187361000105739,2.0600415999942925,0.1883506000158377
58,18,0.0,2,False,0.0,None,right,False,2,1,0,enc,0,0,1,[],[],2,6,3 1 4 4 2 3,4,0.0,0.0,0.0,0.0,0.0,0.0,0,0.0,0.0,0.0,0.0,0.0
59,19,3.5061347000009846,2,True,0.5,acc,right,True,2,1,4,ret,1,4,1,"['3', '1', '2', '4', '3', '3']","[113.8954417000059, 114.29462230001809, 115.5336132000084, 115.76156710000942, 117.14564309999696, 117.40157640000689]",2,6,# # # # # #,None,113.8954417000059,114.29462230001809,115.5336132000084,115.76156710000942,117.14564309999696,117.40157640000689,3.532608399982564,0.3991806000121869,1.2389908999903128,0.2279539000010118,1.3840759999875445,0.25593330000992864
60,20,0.0,3,False,0.0,None,right,False,2,1,0,enc,0,0,0,[],[],2,6,1 1 4 4 3 2,6,0.0,0.0,0.0,0.0,0.0,0.0,0,0.0,0.0,0.0,0.0,0.0
61,21,3.5839000999985733,3,True,0.5,acc,right,False,2,1,6,ret,1,10,0,"['2', '3', '4', '4', '1', '1']","[125.406641700014, 125.75737360000494, 126.2945796000131, 128.12079020001693, 128.62355650000973, 128.99054180001258]",2,6,# # # # # #,None,125.406641700014,125.75737360000494,126.2945796000131,128.12079020001693,128.62355650000973,128.99054180001258,1.505065300007118,0.350731899990933,0.5372060000081547,1.826210600003833,0.5027662999927998,0.36698530000285245
62,22,0.0,2,False,0.0,None,right,False,2,1,0,enc,0,0,1,[],[],2,6,4 2 1 2 4 1,4,0.0,0.0,0.0,0.0,0.0,0.0,0,0.0,0.0,0.0,0.0,0.0
63,23,4.206078800023533,2,True,0.5,acc,right,False,2,1,6,ret,1,10,1,"['4', '2', '1', '2', '4', '1']","[138.80548249999993, 139.31059430001187, 140.69054450001568, 140.75551080002333, 142.53458610002417, 143.01156130002346]",2,6,# # # # # #,None,138.80548249999993,139.31059430001187,140.69054450001568,140.75551080002333,142.53458610002417,143.01156130002346,3.3149406999873463,0.5051118000119459,1.3799502000038046,0.06496630000765435,1.7790753000008408,0.4769751999992877
64,0,0.0,2,False,0.0,None,right,False,2,1,0,enc,0,0,1,[],[],3,6,1 3 3 1 2 3,4,0.0,0.0,0.0,0.0,0.0,0.0,0,0.0,0.0,0.0,0.0,0.0
65,1,6.503953399980674,2,True,0.5,acc,right,True,2,1,5,ret,1,5,1,"['1', '3', '2', '1', '2', '3']","[7.418801000021631, 7.966731000022264, 10.982822300022235, 11.218637600017246, 13.722863300004974, 13.922754400002304]",3,6,# # # # # #,None,7.418801000021631,7.966731000022264,10.982822300022235,11.218637600017246,13.722863300004974,13.922754400002304,NaN,0.5479300000006333,3.016091299999971,0.23581529999501072,2.504225699987728,0.19989109999733046
66,2,0.0,3,False,0.0,None,right,False,2,1,0,enc,0,0,0,[],[],3,6,2 3 1 2 2 1,6,0.0,0.0,0.0,0.0,0.0,0.0,0,0.0,0.0,0.0,0.0,0.0
67,3,5.120305000018561,3,True,0.5,acc,right,False,2,1,6,ret,1,10,0,"['1', '2', '2', '1', '3', '2']","[21.102468500001123, 21.398969100002432, 21.69943940002122, 23.227741400012746, 25.95267640001839, 26.222773500019684]",3,6,# # # # # #,None,21.102468500001123,21.398969100002432,21.69943940002122,23.227741400012746,25.95267640001839,26.222773500019684,0.6797140999988187,0.29650060000130907,0.3004703000187874,1.5283019999915268,2.724935000005644,0.27009710000129417
68,4,0.0,3,False,0.0,None,right,False,2,1,0,enc,0,0,1,[],[],3,6,4 1 3 2 2 1,6,0.0,0.0,0.0,0.0,0.0,0.0,0,0.0,0.0,0.0,0.0,0.0
69,5,2.3398228000151,3,True,0.5,acc,right,False,2,1,6,ret,1,10,1,"['4', '1', '3', '2', '2', '1']","[33.78770250000525, 34.13466930002323, 35.27965710000717, 35.69767770002363, 35.922729900019476, 36.12752530002035]",3,6,# # # # # #,None,33.78770250000525,34.13466930002323,35.27965710000717,35.69767770002363,35.922729900019476,36.12752530002035,1.0649289999855682,0.34696680001798086,1.1449877999839373,0.4180206000164617,0.2250521999958437,0.20479540000087582
70,6,0.0,2,False,0.0,None,right,False,2,1,0,enc,0,0,0,[],[],3,6,3 4 4 3 4 1,4,0.0,0.0,0.0,0.0,0.0,0.0,0,0.0,0.0,0.0,0.0,0.0
71,7,5.214833700010786,2,True,0.5,acc,right,True,2,1,5,ret,1,5,0,"['1', '4', '3', '4', '1', '3']","[46.03145070001483, 46.40766440000152, 48.74279879999813, 49.07770470000105, 51.028483400004916, 51.246284400025615]",3,6,# # # # # #,None,46.03145070001483,46.40766440000152,48.74279879999813,49.07770470000105,51.028483400004916,51.246284400025615,3.4039253999944776,0.3762136999866925,2.3351343999966048,0.33490590000292286,1.950778700003866,0.21780100002069958
72,8,0.0,3,False,0.0,None,right,False,2,1,0,enc,0,0,1,[],[],3,6,1 2 2 4 4 3,6,0.0,0.0,0.0,0.0,0.0,0.0,0,0.0,0.0,0.0,0.0,0.0
73,9,2.85284330000286,3,True,0.5,acc,right,False,2,1,6,ret,1,10,1,"['1', '2', '2', '4', '4', '3']","[58.01178230001824, 58.270738999999594, 58.620694400015054, 59.69271010000375, 59.93895530002192, 60.8646256000211]",3,6,# # # # # #,None,58.01178230001824,58.270738999999594,58.620694400015054,59.69271010000375,59.93895530002192,60.8646256000211,0.2654978999926243,0.2589566999813542,0.3499554000154603,1.0720156999886967,0.24624520001816563,0.925670299999183
74,10,0.0,2,False,0.0,None,right,False,2,1,0,enc,0,0,0,[],[],3,6,4 4 3 2 3 3,4,0.0,0.0,0.0,0.0,0.0,0.0,0,0.0,0.0,0.0,0.0,0.0
75,11,4.497229700005847,2,True,0.5,acc,right,True,2,1,5,ret,1,5,0,"['3', '3', '2', '4', '4', '4']","[70.04662850001478, 70.31972910001059, 72.18872520001605, 72.43082170002162, 74.35065430001123, 74.54385820002062]",3,6,# # # # # #,None,70.04662850001478,70.31972910001059,72.18872520001605,72.43082170002162,74.35065430001123,74.54385820002062,2.6820028999936767,0.27310059999581426,1.868996100005461,0.24209650000557303,1.9198325999896042,0.1932039000093937
76,12,0.0,3,False,0.0,None,right,False,2,1,0,enc,0,0,0,[],[],3,6,2 4 3 2 2 4,6,0.0,0.0,0.0,0.0,0.0,0.0,0,0.0,0.0,0.0,0.0,0.0
77,13,3.4892509000201244,3,True,0.5,acc,right,True,2,1,5,ret,1,5,0,"['4', '2', '2', '3', '1', '2']","[81.92461580000236, 82.29859070002567, 82.55261920002522, 84.96194259999902, 85.19893330000923, 85.41386670002248]",3,6,# # # # # #,None,81.92461580000236,82.29859070002567,82.55261920002522,84.96194259999902,85.19893330000923,85.41386670002248,0.8807575999817345,0.37397490002331324,0.25402849999954924,2.4093233999738004,0.23699070001021028,0.21493340001325123
78,14,0.0,2,False,0.0,None,right,False,2,1,0,enc,0,0,0,[],[],3,6,2 3 4 4 1 2,4,0.0,0.0,0.0,0.0,0.0,0.0,0,0.0,0.0,0.0,0.0,0.0
79,15,6.136840700026369,2,True,0.5,acc,right,True,2,1,4,ret,1,4,0,"['2', '1', '3', '4', '3', '4']","[94.82772729999851, 95.39285540001583, 96.93055790002109, 97.35772630001884, 100.72171290000551, 100.96456800002488]",3,6,# # # # # #,None,94.82772729999851,95.39285540001583,96.93055790002109,97.35772630001884,100.72171290000551,100.96456800002488,2.913860599976033,0.5651281000173185,1.5377025000052527,0.427168399997754,3.3639865999866743,0.24285510001936927
80,16,0.0,3,False,0.0,None,right,False,2,1,0,enc,0,0,1,[],[],3,6,2 1 1 2 4 1,6,0.0,0.0,0.0,0.0,0.0,0.0,0,0.0,0.0,0.0,0.0,0.0
81,17,1.6773838999797592,3,True,0.5,acc,right,False,2,1,6,ret,1,10,1,"['2', '1', '1', '2', '4', '1']","[108.06731830001809, 108.31475710001541, 108.57295329999761, 109.17508730001282, 109.46775050001452, 109.74470219999785]",3,6,# # # # # #,None,108.06731830001809,108.31475710001541,108.57295329999761,109.17508730001282,109.46775050001452,109.74470219999785,0.602750299993204,0.247438799997326,0.25819619998219423,0.6021340000152122,0.292663200001698,0.2769516999833286
82,18,0.0,3,False,0.0,None,right,False,2,1,0,enc,0,0,0,[],[],3,6,3 2 1 1 3 2,6,0.0,0.0,0.0,0.0,0.0,0.0,0,0.0,0.0,0.0,0.0,0.0
83,19,3.803331400005845,3,True,0.5,acc,right,True,2,1,3,ret,1,3,0,"['2', '4', '1', '3', '2', '1']","[117.65550439999788, 117.92139709999901, 118.73974200000521, 120.98358130000997, 121.22059330000775, 121.45883580000373]",3,6,# # # # # #,None,117.65550439999788,117.92139709999901,118.73974200000521,120.98358130000997,121.22059330000775,121.45883580000373,1.4108022000000346,0.26589270000113174,0.8183449000061955,2.2438393000047654,0.237011999997776,0.2382424999959767
84,20,0.0,2,False,0.0,None,right,False,2,1,0,enc,0,0,1,[],[],3,6,1 4 1 4 2 1,4,0.0,0.0,0.0,0.0,0.0,0.0,0,0.0,0.0,0.0,0.0,0.0
85,21,1.6847731999878306,2,True,0.5,acc,right,False,2,1,6,ret,1,10,1,"['1', '4', '1', '4', '2', '1']","[130.32564580001053, 130.63659619999817, 130.98465250001755, 131.3615791000193, 131.74065940000582, 132.01041899999836]",3,6,# # # # # #,None,130.32564580001053,130.63659619999817,130.98465250001755,131.3615791000193,131.74065940000582,132.01041899999836,2.366810000006808,0.3109503999876324,0.3480563000193797,0.3769266000017524,0.37908029998652637,0.26975959999253973
86,22,0.0,2,False,0.0,None,right,False,2,1,0,enc,0,0,1,[],[],3,6,1 3 2 1 1 3,4,0.0,0.0,0.0,0.0,0.0,0.0,0,0.0,0.0,0.0,0.0,0.0
87,23,1.5861360999988392,2,True,0.5,acc,right,False,2,1,6,ret,1,10,1,"['1', '3', '2', '1', '1', '3']","[141.1586181000166, 141.49457390001044, 141.87644390002242, 142.11552099999972, 142.49248149999767, 142.74475420001545]",3,6,# # # # # #,None,141.1586181000166,141.49457390001044,141.87644390002242,142.11552099999972,142.49248149999767,142.74475420001545,2.648199100018246,0.3359557999938261,0.3818700000119861,0.23907709997729398,0.3769604999979492,0.2522727000177838
88,0,0.0,2,False,0.0,None,right,False,2,1,0,enc,0,0,1,[],[],4,6,4 4 1 3 2 2,4,0.0,0.0,0.0,0.0,0.0,0.0,0,0.0,0.0,0.0,0.0,0.0
89,1,3.2806829999899487,2,True,0.5,acc,right,False,2,1,6,ret,1,10,1,"['4', '4', '1', '3', '2', '2']","[8.314400300005218, 8.671506899991073, 10.376279199990677, 10.594430299999658, 11.388295000011567, 11.595083299995167]",4,6,# # # # # #,None,8.314400300005218,8.671506899991073,10.376279199990677,10.594430299999658,11.388295000011567,11.595083299995167,NaN,0.3571065999858547,1.704772299999604,0.2181511000089813,0.793864700011909,0.20678829998360015
90,2,0.0,2,False,0.0,None,right,False,2,1,0,enc,0,0,0,[],[],4,6,3 2 1 3 4 3,4,0.0,0.0,0.0,0.0,0.0,0.0,0,0.0,0.0,0.0,0.0,0.0
91,3,6.7910567999933855,2,True,0.5,acc,right,True,2,1,5,ret,1,5,0,"['3', '4', '2', '1', '2', '3']","[21.067255100002512, 21.355497499986086, 22.92703600000823, 23.16122730000643, 26.986426999996183, 27.858311899995897]",4,6,# # # # # #,None,21.067255100002512,21.355497499986086,22.92703600000823,23.16122730000643,26.986426999996183,27.858311899995897,2.972171800007345,0.2882423999835737,1.5715385000221431,0.23419129999820143,3.825199699989753,0.8718848999997135
92,4,0.0,3,False,0.0,None,right,False,2,1,0,enc,0,0,0,[],[],4,6,2 3 2 3 1 2,6,0.0,0.0,0.0,0.0,0.0,0.0,0,0.0,0.0,0.0,0.0,0.0
93,5,3.7220689999812735,3,True,0.5,acc,right,False,2,1,6,ret,1,10,0,"['2', '1', '3', '2', '3', '2']","[35.20020650001243, 35.417436199990334, 36.37536539998837, 38.47039480000967, 38.69230080000125, 38.9222754999937]",4,6,# # # # # #,None,35.20020650001243,35.417436199990334,36.37536539998837,38.47039480000967,38.69230080000125,38.9222754999937,0.8418946000165306,0.21722969997790642,0.9579291999980342,2.0950294000213034,0.22190599999157712,0.22997469999245368
94,6,0.0,3,False,0.0,None,right,False,2,1,0,enc,0,0,1,[],[],4,6,4 4 4 2 2 1,6,0.0,0.0,0.0,0.0,0.0,0.0,0,0.0,0.0,0.0,0.0,0.0
95,7,2.3407269000017545,3,True,0.5,acc,right,False,2,1,6,ret,1,10,1,"['4', '4', '4', '2', '2', '1']","[45.701380699989386, 45.99341739999363, 46.55414059999748, 47.56627879998996, 47.82527959998697, 48.04210759999114]",4,6,# # # # # #,None,45.701380699989386,45.99341739999363,46.55414059999748,47.56627879998996,47.82527959998697,48.04210759999114,0.2791051999956835,0.2920367000042461,0.5607232000038493,1.012138199992478,0.2590007999970112,0.21682800000417046
96,8,0.0,2,False,0.0,None,right,False,2,1,0,enc,0,0,1,[],[],4,6,3 1 4 3 4 1,4,0.0,0.0,0.0,0.0,0.0,0.0,0,0.0,0.0,0.0,0.0,0.0
97,9,5.3489522000018015,2,True,0.5,acc,right,True,2,1,4,ret,1,4,1,"['3', '4', '4', '3', '1', '1']","[58.190150200010976, 58.51203390001319, 60.58214980000048, 60.805452100001276, 63.321770100010326, 63.53910240001278]",4,6,# # # # # #,None,58.190150200010976,58.51203390001319,60.58214980000048,60.805452100001276,63.321770100010326,63.53910240001278,3.648042600019835,0.32188370000221767,2.070115899987286,0.2233023000007961,2.5163180000090506,0.21733230000245385
98,10,0.0,3,False,0.0,None,right,False,2,1,0,enc,0,0,1,[],[],4,6,3 1 4 2 4 3,6,0.0,0.0,0.0,0.0,0.0,0.0,0,0.0,0.0,0.0,0.0,0.0
99,11,4.096749299991643,3,True,0.5,acc,right,True,2,1,4,ret,1,4,1,"['3', '1', '4', '4', '1', '3']","[71.44149210001342, 71.71539170001051, 72.35222719999729, 74.26718470000196, 74.51615579999634, 75.53824140000506]",4,6,# # # # # #,None,71.44149210001342,71.71539170001051,72.35222719999729,74.26718470000196,74.51615579999634,75.53824140000506,1.40238970000064,0.2738995999970939,0.6368354999867734,1.9149575000046752,0.24897109999437816,1.0220856000087224
100,12,0.0,2,False,0.0,None,right,False,2,1,0,enc,0,0,0,[],[],4,6,2 1 4 1 4 4,4,0.0,0.0,0.0,0.0,0.0,0.0,0,0.0,0.0,0.0,0.0,0.0
101,13,7.139105099980953,2,True,0.5,acc,right,True,2,1,5,ret,1,5,0,"['4', '4', '1', '2', '1', '2']","[83.90820460001123, 84.13406330000726, 88.21550140000181, 89.29123229999095, 90.88445630000206, 91.04730969999218]",4,6,# # # # # #,None,83.90820460001123,84.13406330000726,88.21550140000181,89.29123229999095,90.88445630000206,91.04730969999218,1.8699632000061683,0.22585869999602437,4.081438099994557,1.0757308999891393,1.593224000011105,0.1628533999901265
102,14,0.0,3,False,0.0,None,right,False,2,1,0,enc,0,0,0,[],[],4,6,4 4 4 2 2 3,6,0.0,0.0,0.0,0.0,0.0,0.0,0,0.0,0.0,0.0,0.0,0.0
103,15,1.704961400013417,3,True,0.5,acc,right,False,2,1,6,ret,1,10,0,"['3', '2', '2', '4', '4', '4']","[98.33026149999932, 98.67619100000593, 99.06939439999405, 99.49912540000514, 99.76129250001395, 100.03522290001274]",4,6,# # # # # #,None,98.33026149999932,98.67619100000593,99.06939439999405,99.49912540000514,99.76129250001395,100.03522290001274,0.7829518000071403,0.34592950000660494,0.39320339998812415,0.4297310000110883,0.26216710000880994,0.27393039999878965
104,16,0.0,2,False,0.0,None,right,False,2,1,0,enc,0,0,1,[],[],4,6,4 2 3 2 4 3,4,0.0,0.0,0.0,0.0,0.0,0.0,0,0.0,0.0,0.0,0.0,0.0
105,17,7.97396580001805,2,True,0.5,acc,right,True,2,1,2,ret,1,2,1,"['3', '3', '2', '1', '4', '3']","[110.07420939998701, 112.33621599999606, 114.1402029999881, 114.32622970000375, 117.58337639999809, 118.04817520000506]",4,6,# # # # # #,None,110.07420939998701,112.33621599999606,114.1402029999881,114.32622970000375,117.58337639999809,118.04817520000506,3.5389864999742713,2.2620066000090446,1.8039869999920484,0.18602670001564547,3.257146699994337,0.4647988000069745
106,18,0.0,2,False,0.0,None,right,False,2,1,0,enc,0,0,0,[],[],4,6,4 4 2 3 3 4,4,0.0,0.0,0.0,0.0,0.0,0.0,0,0.0,0.0,0.0,0.0,0.0
107,19,5.026911799999652,2,True,0.5,acc,right,False,2,1,6,ret,1,10,0,"['4', '3', '3', '2', '4', '4']","[128.4382431000122, 128.97114229999715, 130.37692609999795, 130.69019950000802, 133.23521370001254, 133.46515490001184]",4,6,# # # # # #,None,128.4382431000122,128.97114229999715,130.37692609999795,130.69019950000802,133.23521370001254,133.46515490001184,3.890067900007125,0.5328991999849677,1.4057838000007905,0.3132734000100754,2.545014200004516,0.22994119999930263
108,20,0.0,3,False,0.0,None,right,False,2,1,0,enc,0,0,1,[],[],4,6,3 3 3 1 1 2,6,0.0,0.0,0.0,0.0,0.0,0.0,0,0.0,0.0,0.0,0.0,0.0
109,21,1.9240440000139645,3,True,0.5,acc,right,False,2,1,6,ret,1,10,1,"['3', '3', '3', '1', '1', '2']","[140.56413949999842, 140.8401964000077, 141.09608540000045, 142.00047609998728, 142.22807770001236, 142.48818350001238]",4,6,# # # # # #,None,140.56413949999842,140.8401964000077,141.09608540000045,142.00047609998728,142.22807770001236,142.48818350001238,0.5989845999865793,0.27605690000928007,0.2558889999927487,0.9043906999868341,0.227601600025082,0.26010580000001937
110,22,0.0,3,False,0.0,None,right,False,2,1,0,enc,0,0,0,[],[],4,6,1 4 3 2 2 1,6,0.0,0.0,0.0,0.0,0.0,0.0,0,0.0,0.0,0.0,0.0,0.0
111,23,5.536019199993461,3,True,0.5,acc,right,True,2,1,4,ret,1,4,0,"['1', '2', '2', '3', '1', '4']","[149.58717149999575, 149.8572692000016, 150.10823240000173, 154.58223080000607, 154.87112470000284, 155.1231906999892]",4,6,# # # # # #,None,149.58717149999575,149.8572692000016,150.10823240000173,154.58223080000607,154.87112470000284,155.1231906999892,0.5989879999833647,0.27009770000586286,0.25096320000011474,4.473998400004348,0.28889389999676496,0.252065999986371
112,0,0.0,3,False,0.0,None,right,False,2,1,0,enc,0,0,1,[],[],5,6,4 3 1 1 1 1,6,0.0,0.0,0.0,0.0,0.0,0.0,0,0.0,0.0,0.0,0.0,0.0
113,1,1.4798758999968409,3,True,0.5,acc,right,False,2,1,6,ret,1,10,1,"['4', '3', '1', '1', '1', '1']","[5.207068899995647, 5.51833859999897, 5.899799899983918, 6.202261400001589, 6.402424300002167, 6.686944799992489]",5,6,# # # # # #,None,5.207068899995647,5.51833859999897,5.899799899983918,6.202261400001589,6.402424300002167,6.686944799992489,NaN,0.3112697000033222,0.3814612999849487,0.3024615000176709,0.2001629000005778,0.2845204999903217
114,2,0.0,3,False,0.0,None,right,False,2,1,0,enc,0,0,1,[],[],5,6,2 4 2 3 2 4,6,0.0,0.0,0.0,0.0,0.0,0.0,0,0.0,0.0,0.0,0.0,0.0
115,3,3.832754300005036,3,True,0.5,acc,right,True,2,1,2,ret,1,2,1,"['2', '3', '2', '2', '4', '1']","[14.96812289999798, 15.15211259998614, 15.910161199979484, 18.26286779998918, 18.574801799986744, 18.800877200003015]",5,6,# # # # # #,None,14.96812289999798,15.15211259998614,15.910161199979484,18.26286779998918,18.574801799986744,18.800877200003015,1.7811781000054907,0.18398969998816028,0.7580485999933444,2.3527066000096966,0.31193399999756366,0.22607540001627058
116,4,0.0,2,False,0.0,None,right,False,2,1,0,enc,0,0,1,[],[],5,6,4 3 3 2 2 2,4,0.0,0.0,0.0,0.0,0.0,0.0,0,0.0,0.0,0.0,0.0,0.0
117,5,5.678960699995514,2,True,0.5,acc,right,True,2,1,5,ret,1,5,1,"['4', '3', '4', '2', '2', '2']","[28.398895199992694, 28.867928299994674, 32.41697459999705, 32.828798300004564, 33.84699499999988, 34.07785589998821]",5,6,# # # # # #,None,28.398895199992694,28.867928299994674,32.41697459999705,32.828798300004564,33.84699499999988,34.07785589998821,3.098017999989679,0.4690331000019796,3.5490463000023738,0.4118237000075169,1.0181966999953147,0.23086089998832904
118,6,0.0,2,False,0.0,None,right,False,2,1,0,enc,0,0,1,[],[],5,6,2 3 1 3 2 3,4,0.0,0.0,0.0,0.0,0.0,0.0,0,0.0,0.0,0.0,0.0,0.0
119,7,6.206755000021076,2,True,0.5,acc,right,True,2,1,2,ret,1,2,1,"['2', '3', '2', '2', '3', '2']","[45.41191159997834, 46.45298229999025, 48.728947399999015, 48.971845099993516, 51.42203149999841, 51.618666599999415]",5,6,# # # # # #,None,45.41191159997834,46.45298229999025,48.728947399999015,48.971845099993516,51.42203149999841,51.618666599999415,4.834055699990131,1.0410707000119146,2.2759651000087615,0.24289769999450073,2.4501864000048954,0.1966351000010036
120,8,0.0,2,False,0.0,None,right,False,2,1,0,enc,0,0,0,[],[],5,6,3 2 3 1 3 4,4,0.0,0.0,0.0,0.0,0.0,0.0,0,0.0,0.0,0.0,0.0,0.0
121,9,5.166139400011161,2,True,0.5,acc,right,True,2,1,4,ret,1,4,0,"['4', '3', '2', '3', '1', '3']","[60.99091959997895, 61.601015799999004, 62.92273769999156, 63.17675669997698, 65.93380339999567, 66.15705899999011]",5,6,# # # # # #,None,60.99091959997895,61.601015799999004,62.92273769999156,63.17675669997698,65.93380339999567,66.15705899999011,2.872252999979537,0.6100962000200525,1.3217218999925535,0.2540189999854192,2.757046700018691,0.22325559999444522
122,10,0.0,3,False,0.0,None,right,False,2,1,0,enc,0,0,0,[],[],5,6,1 3 1 4 1 1,6,0.0,0.0,0.0,0.0,0.0,0.0,0,0.0,0.0,0.0,0.0,0.0
123,11,2.1509898000222165,3,True,0.5,acc,right,False,2,1,6,ret,1,10,0,"['1', '1', '4', '1', '3', '1']","[74.00487419997808, 74.24982440000167, 74.61489729999448, 75.68926329998067, 75.90386500000022, 76.15586400000029]",5,6,# # # # # #,None,74.00487419997808,74.24982440000167,74.61489729999448,75.68926329998067,75.90386500000022,76.15586400000029,1.3478151999879628,0.24495020002359524,0.36507289999281056,1.0743659999861848,0.21460170001955703,0.2519990000000689
124,12,0.0,3,False,0.0,None,right,False,2,1,0,enc,0,0,0,[],[],5,6,3 3 4 4 1 1,6,0.0,0.0,0.0,0.0,0.0,0.0,0,0.0,0.0,0.0,0.0,0.0
125,13,3.0810420000052545,3,True,0.5,acc,right,False,2,1,6,ret,1,10,0,"['1', '1', '4', '4', '3', '3']","[84.80382859997917, 85.02296959998785, 85.32377109999652, 87.39289649997954, 87.68577739998, 87.88487059998442]",5,6,# # # # # #,None,84.80382859997917,85.02296959998785,85.32377109999652,87.39289649997954,87.68577739998,87.88487059998442,2.1479645999788772,0.2191410000086762,0.30080150000867434,2.0691253999830224,0.29288090000045486,0.19909320000442676
126,14,0.0,2,False,0.0,None,right,False,2,1,0,enc,0,0,0,[],[],5,6,1 4 1 2 4 4,4,0.0,0.0,0.0,0.0,0.0,0.0,0,0.0,0.0,0.0,0.0,0.0
127,15,4.948045199998886,2,True,0.5,acc,right,False,2,1,6,ret,1,10,0,"['4', '4', '2', '1', '4', '1']","[97.08892929999274, 97.29826509999111, 99.02285999999731, 99.11312309998902, 101.79603769999812, 102.03697449999163]",5,6,# # # # # #,None,97.08892929999274,97.29826509999111,99.02285999999731,99.11312309998902,101.79603769999812,102.03697449999163,2.704058700008318,0.20933579999837093,1.7245949000061955,0.09026309999171644,2.6829146000090986,0.2409367999935057
128,16,0.0,2,False,0.0,None,right,False,2,1,0,enc,0,0,1,[],[],5,6,1 2 2 1 4 2,4,0.0,0.0,0.0,0.0,0.0,0.0,0,0.0,0.0,0.0,0.0,0.0
129,17,2.3060794000048186,2,True,0.5,acc,right,False,2,1,6,ret,1,10,1,"['1', '2', '2', '1', '4', '2']","[110.70884939999087, 111.21178230000078, 111.61481009999989, 111.74591830000281, 112.75094579998404, 113.01492879999569]",5,6,# # # # # #,None,110.70884939999087,111.21178230000078,111.61481009999989,111.74591830000281,112.75094579998404,113.01492879999569,2.1718748999992386,0.5029329000099096,0.40302779999910854,0.13110820000292733,1.0050274999812245,0.263983000011649
130,18,0.0,3,False,0.0,None,right,False,2,1,0,enc,0,0,1,[],[],5,6,2 2 1 3 1 3,6,0.0,0.0,0.0,0.0,0.0,0.0,0,0.0,0.0,0.0,0.0,0.0
131,19,1.8880421000067145,3,True,0.5,acc,right,True,2,1,2,ret,1,2,1,"['2', '1', '2', '4', '1', '4']","[120.02476229998865, 120.23771549999947, 120.75016139997751, 121.30781489997753, 121.51160859997617, 121.91280439999537]",5,6,# # # # # #,None,120.02476229998865,120.23771549999947,120.75016139997751,121.30781489997753,121.51160859997617,121.91280439999537,0.5098334999929648,0.21295320001081564,0.5124458999780472,0.5576535000000149,0.2037936999986414,0.4011958000191953
132,20,0.0,2,False,0.0,None,right,False,2,1,0,enc,0,0,0,[],[],5,6,3 4 2 3 1 4,4,0.0,0.0,0.0,0.0,0.0,0.0,0,0.0,0.0,0.0,0.0,0.0
133,21,6.3009232000040365,2,True,0.5,acc,right,True,2,1,5,ret,1,5,0,"['4', '1', '3', '2', '2', '3']","[132.39092109998455, 133.27272589999484, 135.031782999984, 135.35076239999034, 138.52488230000017, 138.6918442999886]",5,6,# # # # # #,None,132.39092109998455,133.27272589999484,135.031782999984,135.35076239999034,138.52488230000017,138.6918442999886,3.9781166999891866,0.8818048000102863,1.7590570999891497,0.3189794000063557,3.1741199000098277,0.1669619999884162
134,22,0.0,3,False,0.0,None,right,False,2,1,0,enc,0,0,0,[],[],5,6,2 3 3 3 4 2,6,0.0,0.0,0.0,0.0,0.0,0.0,0,0.0,0.0,0.0,0.0,0.0
135,23,5.634252000018022,3,True,0.5,acc,right,True,2,1,4,ret,1,4,0,"['2', '3', '3', '3', '2', '2']","[148.22552049998194, 148.68956869997783, 150.61673359997803, 153.35984969997662, 153.58981459998176, 153.85977249999996]",5,6,# # # # # #,None,148.22552049998194,148.68956869997783,150.61673359997803,153.35984969997662,153.58981459998176,153.85977249999996,3.0336761999933515,0.46404819999588653,1.9271649000002071,2.7431160999985877,0.22996490000514314,0.2699579000181984
136,0,0.0,2,False,0.0,None,right,False,2,1,0,enc,0,0,1,[],[],6,6,2 3 1 1 2 3,4,0.0,0.0,0.0,0.0,0.0,0.0,0,0.0,0.0,0.0,0.0,0.0
137,1,1.3452263000071978,2,True,0.5,acc,right,False,2,1,6,ret,1,10,1,"['2', '3', '1', '1', '2', '3']","[6.41746699999203, 6.670185299997684, 7.0973055999784265, 7.314458599983482, 7.539521500002593, 7.762693299999228]",6,6,# # # # # #,None,6.41746699999203,6.670185299997684,7.0973055999784265,7.314458599983482,7.539521500002593,7.762693299999228,NaN,0.2527183000056539,0.42712029998074286,0.21715300000505522,0.2250629000191111,0.22317179999663495
138,2,0.0,3,False,0.0,None,right,False,2,1,0,enc,0,0,1,[],[],6,6,2 3 3 4 2 2,6,0.0,0.0,0.0,0.0,0.0,0.0,0,0.0,0.0,0.0,0.0,0.0
139,3,1.6979100000171456,3,True,0.5,acc,right,False,2,1,6,ret,1,10,1,"['2', '3', '3', '4', '2', '2']","[14.355290399980731, 14.637238199997228, 14.885276899993187, 15.355247300001793, 15.840240799996536, 16.053200399997877]",6,6,# # # # # #,None,14.355290399980731,14.637238199997228,14.885276899993187,15.355247300001793,15.840240799996536,16.053200399997877,0.09259709998150356,0.28194780001649633,0.24803869999595918,0.4699704000086058,0.4849934999947436,0.21295960000134073
140,4,0.0,2,False,0.0,None,right,False,2,1,0,enc,0,0,0,[],[],6,6,3 1 2 4 4 4,4,0.0,0.0,0.0,0.0,0.0,0.0,0,0.0,0.0,0.0,0.0,0.0
141,5,2.570022700005211,2,True,0.5,acc,right,False,2,1,6,ret,1,10,0,"['4', '4', '4', '2', '1', '3']","[25.626275399990845, 25.901450499979546, 26.89431499998318, 27.260380599997006, 28.010365099995397, 28.196298099996056]",6,6,# # # # # #,None,25.626275399990845,25.901450499979546,26.89431499998318,27.260380599997006,28.010365099995397,28.196298099996056,3.0730749999929685,0.2751750999887008,0.992864500003634,0.36606560001382604,0.7499844999983907,0.18593300000065938
142,6,0.0,3,False,0.0,None,right,False,2,1,0,enc,0,0,1,[],[],6,6,3 3 1 3 2 2,6,0.0,0.0,0.0,0.0,0.0,0.0,0,0.0,0.0,0.0,0.0,0.0
143,7,2.395752399985213,3,True,0.5,acc,right,False,2,1,6,ret,1,10,1,"['3', '3', '1', '3', '2', '2']","[35.90961229999084, 36.19936139998026, 36.58836959998007, 37.82147219998296, 38.07406240000273, 38.30536469997605]",6,6,# # # # # #,None,35.90961229999084,36.19936139998026,36.58836959998007,37.82147219998296,38.07406240000273,38.30536469997605,1.2133141999947838,0.28974909998942167,0.3890081999998074,1.2331026000028942,0.2525902000197675,0.23130229997332208
144,8,0.0,2,False,0.0,None,right,False,2,1,0,enc,0,0,1,[],[],6,6,1 2 2 2 4 1,4,0.0,0.0,0.0,0.0,0.0,0.0,0,0.0,0.0,0.0,0.0,0.0
145,9,2.110127799998736,2,True,0.5,acc,right,False,2,1,6,ret,1,10,1,"['1', '2', '2', '2', '4', '1']","[47.445174899999984, 47.657087300001876, 47.92667379998602, 48.208249599992996, 49.340239999990445, 49.55530269999872]",6,6,# # # # # #,None,47.445174899999984,47.657087300001876,47.92667379998602,48.208249599992996,49.340239999990445,49.55530269999872,2.6398102000239305,0.21191240000189282,0.2695864999841433,0.28157580000697635,1.1319903999974485,0.215062700008275
146,10,0.0,3,False,0.0,None,right,False,2,1,0,enc,0,0,1,[],[],6,6,3 1 4 4 2 4,6,0.0,0.0,0.0,0.0,0.0,0.0,0,0.0,0.0,0.0,0.0,0.0
147,11,3.4029732999915723,3,True,0.5,acc,right,True,2,1,3,ret,1,3,1,"['3', '1', '4', '2', '4', '2']","[59.10637389999465, 59.68430249998346, 59.981168600003, 61.62418250000337, 61.879091999988304, 62.50934719998622]",6,6,# # # # # #,None,59.10637389999465,59.68430249998346,59.981168600003,61.62418250000337,61.879091999988304,62.50934719998622,3.0510711999959312,0.5779285999888089,0.2968661000195425,1.6430139000003692,0.25490949998493306,0.6302551999979187
148,12,0.0,3,False,0.0,None,right,False,2,1,0,enc,0,0,0,[],[],6,6,3 4 1 3 4 2,6,0.0,0.0,0.0,0.0,0.0,0.0,0,0.0,0.0,0.0,0.0,0.0
149,13,6.347835199994734,3,True,0.5,acc,right,False,2,1,6,ret,1,10,0,"['2', '4', '3', '1', '4', '3']","[69.98921669999254, 70.69128299999284, 71.30422629998066, 75.74228609999409, 76.0172842000029, 76.33705189998727]",6,6,# # # # # #,None,69.98921669999254,70.69128299999284,71.30422629998066,75.74228609999409,76.0172842000029,76.33705189998727,0.9798695000063162,0.7020663000002969,0.612943299987819,4.438059800013434,0.2749981000088155,0.31976769998436794
150,14,0.0,3,False,0.0,None,right,False,2,1,0,enc,0,0,0,[],[],6,6,1 2 1 3 1 1,6,0.0,0.0,0.0,0.0,0.0,0.0,0,0.0,0.0,0.0,0.0,0.0
151,15,3.0070292000018526,3,True,0.5,acc,right,False,2,1,6,ret,1,10,0,"['1', '1', '3', '1', '2', '1']","[84.83620979997795, 85.05016990000149, 85.41703949999646, 87.37031669999124, 87.61723909998545, 87.8432389999798]",6,6,# # # # # #,None,84.83620979997795,85.05016990000149,85.41703949999646,87.37031669999124,87.61723909998545,87.8432389999798,1.9991578999906778,0.2139601000235416,0.3668695999949705,1.9532771999947727,0.24692239999421872,0.2259998999943491
152,16,0.0,2,False,0.0,None,right,False,2,1,0,enc,0,0,1,[],[],6,6,2 1 4 3 3 2,4,0.0,0.0,0.0,0.0,0.0,0.0,0,0.0,0.0,0.0,0.0,0.0
153,17,4.372128000017256,2,True,0.5,acc,right,True,2,1,3,ret,1,3,1,"['4', '1', '3', '2', '3', '2']","[98.8642418999807, 99.17831930000102, 101.3272165999806, 101.59028039997793, 103.03413990000263, 103.23636989999795]",6,6,# # # # # #,None,98.8642418999807,99.17831930000102,101.3272165999806,101.59028039997793,103.03413990000263,103.23636989999795,4.521002900000894,0.3140774000203237,2.1488972999795806,0.263063799997326,1.4438595000247005,0.20222999999532476
154,18,0.0,2,False,0.0,None,right,False,2,1,0,enc,0,0,0,[],[],6,6,1 4 4 1 2 3,4,0.0,0.0,0.0,0.0,0.0,0.0,0,0.0,0.0,0.0,0.0,0.0
155,19,9.469073200016282,2,True,0.5,acc,right,True,2,1,5,ret,1,5,0,"['3', '2', '1', '4', '1', '1']","[113.94614749998436, 114.27127779999864, 120.8593309999851, 121.93927729999996, 122.30009159998735, 123.41522070000065]",6,6,# # # # # #,None,113.94614749998436,114.27127779999864,120.8593309999851,121.93927729999996,122.30009159998735,123.41522070000065,4.20977759998641,0.3251303000142798,6.5880531999864615,1.0799463000148535,0.3608142999873962,1.1151291000132915
156,20,0.0,2,False,0.0,None,right,False,2,1,0,enc,0,0,0,[],[],6,6,2 1 2 3 4 4,4,0.0,0.0,0.0,0.0,0.0,0.0,0,0.0,0.0,0.0,0.0,0.0
157,21,2.4348080999916424,2,True,0.5,acc,right,False,2,1,6,ret,1,10,0,"['4', '4', '3', '2', '1', '2']","[132.47414690000005, 132.70038110000314, 133.77486659999704, 134.020119599998, 134.6970272999897, 134.9089549999917]",6,6,# # # # # #,None,132.47414690000005,132.70038110000314,133.77486659999704,134.020119599998,134.6970272999897,134.9089549999917,2.558926199999405,0.22623420000309125,1.074485499993898,0.2452530000009574,0.6769076999917161,0.21192770000197925
158,22,0.0,3,False,0.0,None,right,False,2,1,0,enc,0,0,0,[],[],6,6,3 1 3 4 2 3,6,0.0,0.0,0.0,0.0,0.0,0.0,0,0.0,0.0,0.0,0.0,0.0
159,23,6.867551199975424,3,True,0.5,acc,right,True,2,1,1,ret,1,1,0,"['4', '3', '4', '1', '4', '1']","[144.6807845000003, 147.20631189999403, 147.50113560000318, 151.10712400000193, 151.33410089998506, 151.54833569997572]",6,6,# # # # # #,None,144.6807845000003,147.20631189999403,147.50113560000318,151.10712400000193,151.33410089998506,151.54833569997572,3.2718295000086073,2.5255273999937344,0.2948237000091467,3.6059883999987505,0.22697689998312853,0.2142347999906633
160,0,0.0,2,False,0.0,None,right,False,2,1,0,enc,0,0,1,[],[],7,6,2 4 4 2 1 3,4,0.0,0.0,0.0,0.0,0.0,0.0,0,0.0,0.0,0.0,0.0,0.0
161,1,2.55156100000022,2,True,0.5,acc,right,False,2,1,6,ret,1,10,1,"['2', '4', '4', '2', '1', '3']","[6.51012510000146, 6.808797100005904, 7.741678499995032, 8.04255290000583, 8.830778900010046, 9.06168610000168]",7,6,# # # # # #,None,6.51012510000146,6.808797100005904,7.741678499995032,8.04255290000583,8.830778900010046,9.06168610000168,NaN,0.29867200000444427,0.9328813999891281,0.3008744000107981,0.7882260000042152,0.23090719999163412
162,2,0.0,3,False,0.0,None,right,False,2,1,0,enc,0,0,1,[],[],7,6,2 4 3 1 4 4,6,0.0,0.0,0.0,0.0,0.0,0.0,0,0.0,0.0,0.0,0.0,0.0
163,3,3.564207899995381,3,True,0.5,acc,right,False,2,1,6,ret,1,10,1,"['2', '4', '3', '1', '4', '4']","[15.943605900014518, 16.79966260000947, 17.130638100003125, 19.015574399993056, 19.306463800021447, 19.5078138000099]",7,6,# # # # # #,None,15.943605900014518,16.79966260000947,17.130638100003125,19.015574399993056,19.306463800021447,19.5078138000099,0.3819198000128381,0.8560566999949515,0.33097549999365583,1.8849362999899313,0.2908894000283908,0.2013499999884516
164,4,0.0,3,False,0.0,None,right,False,2,1,0,enc,0,0,1,[],[],7,6,3 3 4 4 4 1,6,0.0,0.0,0.0,0.0,0.0,0.0,0,0.0,0.0,0.0,0.0,0.0
165,5,1.945080900011817,3,True,0.5,acc,right,False,2,1,6,ret,1,10,1,"['3', '3', '4', '4', '4', '1']","[27.552562700002454, 27.874568400002318, 28.3456400000141, 28.977659700001823, 29.2295970999985, 29.49764360001427]",7,6,# # # # # #,None,27.552562700002454,27.874568400002318,28.3456400000141,28.977659700001823,29.2295970999985,29.49764360001427,1.5447488999925554,0.3220056999998633,0.4710716000117827,0.6320196999877226,0.2519373999966774,0.268046500015771
166,6,0.0,2,False,0.0,None,right,False,2,1,0,enc,0,0,1,[],[],7,6,4 1 2 3 3 2,4,0.0,0.0,0.0,0.0,0.0,0.0,0,0.0,0.0,0.0,0.0,0.0
167,7,1.9639085000089835,2,True,0.5,acc,right,False,2,1,6,ret,1,10,1,"['4', '1', '2', '3', '3', '2']","[38.425689600000624, 38.70452379999915, 39.45748780001304, 39.77257840000675, 40.15174540001317, 40.38959810000961]",7,6,# # # # # #,None,38.425689600000624,38.70452379999915,39.45748780001304,39.77257840000675,40.15174540001317,40.38959810000961,2.4280459999863524,0.27883419999852777,0.7529640000138897,0.3150905999937095,0.3791670000064187,0.23785269999643788
168,8,0.0,3,False,0.0,None,right,False,2,1,0,enc,0,0,0,[],[],7,6,3 4 2 1 2 2,6,0.0,0.0,0.0,0.0,0.0,0.0,0,0.0,0.0,0.0,0.0,0.0
169,9,4.52430170000298,3,True,0.5,acc,right,True,2,1,4,ret,1,4,0,"['2', '2', '1', '4', '1', '3']","[47.956627600011416, 48.184246100019664, 48.5386950999964, 51.472625499998685, 52.06272139999783, 52.480929300014395]",7,6,# # # # # #,None,47.956627600011416,48.184246100019664,48.5386950999964,51.472625499998685,52.06272139999783,52.480929300014395,1.0670295000018086,0.2276185000082478,0.3544489999767393,2.933930400002282,0.5900958999991417,0.4182079000165686
170,10,0.0,2,False,0.0,None,right,False,2,1,0,enc,0,0,0,[],[],7,6,4 4 3 4 3 3,4,0.0,0.0,0.0,0.0,0.0,0.0,0,0.0,0.0,0.0,0.0,0.0
171,11,5.109259100019699,2,True,0.5,acc,right,True,2,1,4,ret,1,4,0,"['3', '3', '4', '3', '3', '1']","[64.45354950000183, 64.70144289999735, 67.33060420001857, 67.61658890001127, 69.3734999000153, 69.56280860002153]",7,6,# # # # # #,None,64.45354950000183,64.70144289999735,67.33060420001857,67.61658890001127,69.3734999000153,69.56280860002153,5.472620199987432,0.24789339999551885,2.6291613000212237,0.2859846999926958,1.7569110000040382,0.18930870000622235
172,12,0.0,2,False,0.0,None,right,False,2,1,0,enc,0,0,0,[],[],7,6,4 1 4 1 4 2,4,0.0,0.0,0.0,0.0,0.0,0.0,0,0.0,0.0,0.0,0.0,0.0
173,13,2.369134499982465,2,True,0.5,acc,right,False,2,1,6,ret,1,10,0,"['2', '4', '1', '4', '1', '4']","[79.48232390001067, 79.89548400000785, 80.9485140000179, 81.23145419999491, 81.61559600001783, 81.85145839999313]",7,6,# # # # # #,None,79.48232390001067,79.89548400000785,80.9485140000179,81.23145419999491,81.61559600001783,81.85145839999313,3.4195152999891434,0.41316009999718517,1.0530300000100397,0.2829401999770198,0.38414180002291687,0.23586239997530356
174,14,0.0,3,False,0.0,None,right,False,2,1,0,enc,0,0,1,[],[],7,6,2 1 4 3 1 2,6,0.0,0.0,0.0,0.0,0.0,0.0,0,0.0,0.0,0.0,0.0,0.0
175,15,2.768949599994812,3,True,0.5,acc,right,False,2,1,6,ret,1,10,1,"['2', '1', '4', '3', '1', '2']","[91.60559479999938, 91.85342709999532, 92.16244509999524, 93.76553350000177, 94.11854850000236, 94.37454439999419]",7,6,# # # # # #,None,91.60559479999938,91.85342709999532,92.16244509999524,93.76553350000177,94.11854850000236,94.37454439999419,3.254136400006246,0.2478322999959346,0.30901799999992363,1.603088400006527,0.35301500000059605,0.2559958999918308
176,16,0.0,2,False,0.0,None,right,False,2,1,0,enc,0,0,0,[],[],7,6,4 4 4 2 4 2,4,0.0,0.0,0.0,0.0,0.0,0.0,0,0.0,0.0,0.0,0.0,0.0
177,17,1.9762738000135869,2,True,0.5,acc,right,False,2,1,6,ret,1,10,0,"['2', '4', '2', '4', '4', '4']","[104.60843860000023, 104.99764410001808, 105.67856640001992, 106.01354390001507, 106.39163460000418, 106.58471240001381]",7,6,# # # # # #,None,104.60843860000023,104.99764410001808,105.67856640001992,106.01354390001507,106.39163460000418,106.58471240001381,3.7338942000060342,0.3892055000178516,0.6809223000018392,0.3349774999951478,0.3780906999891158,0.19307780000963248
178,18,0.0,3,False,0.0,None,right,False,2,1,0,enc,0,0,0,[],[],7,6,3 1 4 4 2 4,6,0.0,0.0,0.0,0.0,0.0,0.0,0,0.0,0.0,0.0,0.0,0.0
179,19,3.5897306000115354,3,True,0.5,acc,right,False,2,1,6,ret,1,10,0,"['4', '2', '4', '4', '1', '3']","[114.565826200007, 114.91556970000966, 115.23142039999948, 117.40872410000884, 117.75015740000526, 118.15555680001853]",7,6,# # # # # #,None,114.565826200007,114.91556970000966,115.23142039999948,117.40872410000884,117.75015740000526,118.15555680001853,1.4811137999931816,0.34974350000265986,0.3158506999898236,2.177303700009361,0.34143329999642447,0.40539940001326613
180,20,0.0,3,False,0.0,None,right,False,2,1,0,enc,0,0,0,[],[],7,6,1 4 2 2 3 4,6,0.0,0.0,0.0,0.0,0.0,0.0,0,0.0,0.0,0.0,0.0,0.0
181,21,5.450706600007835,3,True,0.5,acc,right,True,2,1,4,ret,1,4,0,"['4', '3', '2', '3', '2', '1']","[126.84172200001194, 127.08452299999772, 127.5504224000033, 131.78742690000217, 132.0755302000034, 132.29242860001978]",7,6,# # # # # #,None,126.84172200001194,127.08452299999772,127.5504224000033,131.78742690000217,132.0755302000034,132.29242860001978,2.186165199993411,0.24280099998577498,0.4658994000055827,4.237004499998875,0.2881033000012394,0.21689840001636185
182,22,0.0,2,False,0.0,None,right,False,2,1,0,enc,0,0,1,[],[],7,6,1 1 2 1 1 3,4,0.0,0.0,0.0,0.0,0.0,0.0,0,0.0,0.0,0.0,0.0,0.0
183,23,4.0149336000031335,2,True,0.5,acc,right,False,2,1,6,ret,1,10,1,"['1', '1', '2', '1', '1', '3']","[141.5345309000113, 141.7684751000197, 142.75165290001314, 143.01462150001316, 145.35562730001402, 145.54946450001444]",7,6,# # # # # #,None,141.5345309000113,141.7684751000197,142.75165290001314,143.01462150001316,145.35562730001402,145.54946450001444,2.7421022999915294,0.2339442000084091,0.9831777999934275,0.262968600000022,2.3410058000008576,0.1938372000004165
184,0,0.0,2,False,0.0,None,right,False,2,1,0,enc,0,0,1,[],[],8,6,4 2 3 2 2 2,4,0.0,0.0,0.0,0.0,0.0,0.0,0,0.0,0.0,0.0,0.0,0.0
185,1,1.6489630999858491,2,True,0.5,acc,right,False,2,1,6,ret,1,10,1,"['4', '2', '3', '2', '2', '2']","[8.100550200004363, 8.631567100004759, 8.922618600015994, 9.227462300012121, 9.510361799999373, 9.749513299990213]",8,6,# # # # # #,None,8.100550200004363,8.631567100004759,8.922618600015994,9.227462300012121,9.510361799999373,9.749513299990213,NaN,0.5310169000003953,0.2910515000112355,0.3048436999961268,0.28289949998725206,0.2391514999908395
186,2,0.0,2,False,0.0,None,right,False,2,1,0,enc,0,0,1,[],[],8,6,1 1 1 3 1 4,4,0.0,0.0,0.0,0.0,0.0,0.0,0,0.0,0.0,0.0,0.0,0.0
187,3,1.645042199990712,2,True,0.5,acc,right,False,2,1,6,ret,1,10,1,"['1', '1', '1', '3', '1', '4']","[18.3845113000134, 18.607403000001796, 18.907535600010306, 19.392513400001917, 19.70041280001169, 20.029553500004113]",8,6,# # # # # #,None,18.3845113000134,18.607403000001796,18.907535600010306,19.392513400001917,19.70041280001169,20.029553500004113,2.134998000023188,0.22289169998839498,0.30013260000851005,0.4849777999916114,0.30789940000977367,0.329140699992422
188,4,0.0,2,False,0.0,None,right,False,2,1,0,enc,0,0,0,[],[],8,6,2 1 2 1 3 4,4,0.0,0.0,0.0,0.0,0.0,0.0,0,0.0,0.0,0.0,0.0,0.0
189,5,2.8806528999994043,2,True,0.5,acc,right,False,2,1,6,ret,1,10,0,"['4', '3', '1', '2', '1', '2']","[29.996624799998244, 30.424670600012178, 32.23738500001491, 32.434673900017515, 32.70145419999608, 32.87727769999765]",8,6,# # # # # #,None,29.996624799998244,30.424670600012178,32.23738500001491,32.434673900017515,32.70145419999608,32.87727769999765,3.4670712999941316,0.42804580001393333,1.8127144000027329,0.19728890000260435,0.26678029997856356,0.1758235000015702
190,6,0.0,2,False,0.0,None,right,False,2,1,0,enc,0,0,1,[],[],8,6,1 3 1 4 2 3,4,0.0,0.0,0.0,0.0,0.0,0.0,0,0.0,0.0,0.0,0.0,0.0
191,7,1.8490850000234784,2,True,0.5,acc,right,False,2,1,6,ret,1,10,1,"['1', '3', '1', '4', '2', '3']","[41.752517599990824, 42.09834090000368, 42.40566839999519, 42.69039219999104, 43.375497000000905, 43.6016026000143]",8,6,# # # # # #,None,41.752517599990824,42.09834090000368,42.40566839999519,42.69039219999104,43.375497000000905,43.6016026000143,2.3752398999931756,0.345823300012853,0.30732749999151565,0.2847237999958452,0.6851048000098672,0.22610560001339763
192,8,0.0,3,False,0.0,None,right,False,2,1,0,enc,0,0,1,[],[],8,6,1 4 3 3 2 2,6,0.0,0.0,0.0,0.0,0.0,0.0,0,0.0,0.0,0.0,0.0,0.0
193,9,1.8678667999920435,3,True,0.5,acc,right,False,2,1,6,ret,1,10,1,"['1', '4', '3', '3', '2', '2']","[52.09556800001883, 52.37050449999515, 52.75171430001501, 53.47837029999937, 53.72144369999296, 53.96343480001087]",8,6,# # # # # #,None,52.09556800001883,52.37050449999515,52.75171430001501,53.47837029999937,53.72144369999296,53.96343480001087,1.9939654000045266,0.2749364999763202,0.38120980001986027,0.7266559999843594,0.243073399993591,0.24199110001791269
194,10,0.0,2,False,0.0,None,right,False,2,1,0,enc,0,0,0,[],[],8,6,4 3 3 4 4 1,4,0.0,0.0,0.0,0.0,0.0,0.0,0,0.0,0.0,0.0,0.0,0.0
195,11,5.607913900021231,2,True,0.5,acc,right,False,2,1,6,ret,1,10,0,"['1', '4', '4', '3', '3', '4']","[65.7816354999959, 65.99139340000693, 69.17604819999542, 69.55150659999344, 71.16354750000755, 71.38954940001713]",8,6,# # # # # #,None,65.7816354999959,65.99139340000693,69.17604819999542,69.55150659999344,71.16354750000755,71.38954940001713,5.318200699985027,0.20975790001102723,3.1846547999884933,0.3754583999980241,1.612040900014108,0.2260019000095781
196,12,0.0,2,False,0.0,None,right,False,2,1,0,enc,0,0,0,[],[],8,6,3 1 3 2 4 2,4,0.0,0.0,0.0,0.0,0.0,0.0,0,0.0,0.0,0.0,0.0,0.0
197,13,6.687137499975506,2,True,0.5,acc,right,True,2,1,5,ret,1,5,0,"['2', '4', '2', '3', '2', '3']","[82.74454420001712, 83.02235820001806, 85.18566190000274, 85.42749130001175, 89.19161629999871, 89.43168169999262]",8,6,# # # # # #,None,82.74454420001712,83.02235820001806,85.18566190000274,85.42749130001175,89.19161629999871,89.43168169999262,4.854994799999986,0.27781400000094436,2.163303699984681,0.24182940000901,3.7641249999869615,0.24006539999390952
198,14,0.0,3,False,0.0,None,right,False,2,1,0,enc,0,0,1,[],[],8,6,1 3 2 3 3 3,6,0.0,0.0,0.0,0.0,0.0,0.0,0,0.0,0.0,0.0,0.0,0.0
199,15,1.575962400005665,3,True,0.5,acc,right,True,2,1,4,ret,1,4,1,"['1', '3', '2', '2', '2', '3']","[96.38045510000666, 96.6062465000141, 96.87936540000373, 97.17031909999787, 97.4000605000183, 97.95641750001232]",8,6,# # # # # #,None,96.38045510000666,96.6062465000141,96.87936540000373,97.17031909999787,97.4000605000183,97.95641750001232,0.44877340001403354,0.22579140000743791,0.27311889998964034,0.2909536999941338,0.22974140002042986,0.5563569999940228
200,16,0.0,3,False,0.0,None,right,False,2,1,0,enc,0,0,1,[],[],8,6,4 2 4 4 2 4,6,0.0,0.0,0.0,0.0,0.0,0.0,0,0.0,0.0,0.0,0.0,0.0
201,17,1.9510172000154853,3,True,0.5,acc,right,False,2,1,6,ret,1,10,1,"['4', '2', '4', '4', '2', '4']","[105.03739869999117, 105.44848540000385, 105.74911900001462, 106.43744280000101, 106.76653880000231, 106.98841590000666]",8,6,# # # # # #,None,105.03739869999117,105.44848540000385,105.74911900001462,106.43744280000101,106.76653880000231,106.98841590000666,0.5809811999788508,0.41108670001267456,0.30063360001076944,0.6883237999863923,0.3290960000013001,0.2218771000043489
202,18,0.0,3,False,0.0,None,right,False,2,1,0,enc,0,0,0,[],[],8,6,1 2 2 3 1 1,6,0.0,0.0,0.0,0.0,0.0,0.0,0,0.0,0.0,0.0,0.0,0.0
203,19,2.818084700003965,3,True,0.5,acc,right,False,2,1,6,ret,1,10,0,"['1', '1', '3', '2', '2', '1']","[114.99544369999785, 115.2164546000131, 115.52146980000543, 117.43748520000372, 117.62727910000831, 117.81352840000181]",8,6,# # # # # #,None,114.99544369999785,115.2164546000131,115.52146980000543,117.43748520000372,117.62727910000831,117.81352840000181,1.5070277999911923,0.22101090001524426,0.30501519999234006,1.9160153999982867,0.18979390000458807,0.1862492999935057
204,20,0.0,3,False,0.0,None,right,False,2,1,0,enc,0,0,0,[],[],8,6,2 3 1 1 3 4,6,0.0,0.0,0.0,0.0,0.0,0.0,0,0.0,0.0,0.0,0.0,0.0
205,21,5.287900499999523,3,True,0.5,acc,right,True,2,1,5,ret,1,5,0,"['4', '3', '2', '1', '3', '2']","[129.9935240999912, 130.31343559999368, 130.6692854000139, 134.42937220001477, 134.71237749999273, 135.28142459999071]",8,6,# # # # # #,None,129.9935240999912,130.31343559999368,130.6692854000139,134.42937220001477,134.71237749999273,135.28142459999071,5.679995699989377,0.31991150000249036,0.3558498000202235,3.760086800000863,0.2830052999779582,0.569047099997988
206,22,0.0,3,False,0.0,None,right,False,2,1,0,enc,0,0,0,[],[],8,6,4 3 2 2 1 3,6,0.0,0.0,0.0,0.0,0.0,0.0,0,0.0,0.0,0.0,0.0,0.0
207,23,10.451725499995518,3,True,0.5,acc,right,False,2,1,6,ret,1,10,0,"['3', '1', '2', '2', '3', '4']","[143.71342970000114, 149.78553680001642, 150.2823619999981, 152.76918329999899, 153.88135189999593, 154.16515519999666]",8,6,# # # # # #,None,143.71342970000114,149.78553680001642,150.2823619999981,152.76918329999899,153.88135189999593,154.16515519999666,1.9320051000104286,6.072107100015273,0.49682519998168573,2.4868213000008836,1.1121685999969486,0.2838033000007272
