,MT,Unnamed: 0,Unnamed: 0.1,Unnamed: 0.1.1,Unnamed: 0.1.1.1,Unnamed: 0.1.1.1.1,Unnamed: 0.1.1.1.1.1,Unnamed: 0.1.1.1.1.1.1,Unnamed: 0.1.1.1.1.1.1.1,Unnamed: 0.1.1.1.1.1.1.1.1,chunk,display_trial_feedback,feedback_dur,feedback_type,hand,is_error,item_dur,iti_dur,number_correct,phase,phase_type,points,recall_dir,response,response_time,run_number,seq_length,seq_str,trial_dur
0,0.0,0,0.0,0.0,0.0,0.0,0.0,0.0,0.0,0.0,3,False,0.0,None,right,False,2,1,0,enc,0,0,1,[],[],1,6,2 2 2 4 4 3,6
1,12.700424599985125,1,1.0,1.0,1.0,1.0,1.0,1.0,1.0,1.0,3,True,0.5,acc,right,True,2,1,3,ret,1,3,1,"['4', '4', '3', '4', '4', '3']","[4.074759200011613, 4.211076400009915, 10.722162299993215, 15.571232400019653, 16.148054799996316, 16.77518379999674]",1,6,# # # # # #,None
2,0.0,2,2.0,2.0,2.0,2.0,2.0,2.0,2.0,2.0,3,False,0.0,None,right,False,2,1,0,enc,0,0,1,[],[],1,6,1 3 1 3 1 2,6
3,3.5562164000002667,3,3.0,3.0,3.0,3.0,3.0,3.0,3.0,3.0,3,True,0.5,acc,right,True,2,1,4,ret,1,4,1,"['1', '3', '1', '3', '2', '1']","[24.55575180001324, 24.869166200020118, 25.458984199998667, 27.478051300015068, 27.87105149999843, 28.111968200013507]",1,6,# # # # # #,None
4,0.0,4,4.0,4.0,4.0,4.0,4.0,4.0,4.0,4.0,3,False,0.0,None,right,False,2,1,0,enc,0,0,0,[],[],1,6,4 1 4 3 4 3,6
5,3.0816065999970306,5,5.0,5.0,5.0,5.0,5.0,5.0,5.0,5.0,3,True,0.5,acc,right,False,2,1,6,ret,1,10,0,"['3', '4', '3', '4', '1', '4']","[36.25222650001524, 36.57101440001861, 37.07519980001962, 38.79902770000626, 39.0951597999956, 39.33383310001227]",1,6,# # # # # #,None
6,0.0,6,6.0,6.0,6.0,6.0,6.0,6.0,6.0,6.0,2,False,0.0,None,right,False,2,1,0,enc,0,0,1,[],[],1,6,4 3 4 1 4 4,4
7,2.5246455000014976,7,7.0,7.0,7.0,7.0,7.0,7.0,7.0,7.0,2,True,0.5,acc,right,False,2,1,6,ret,1,10,1,"['4', '3', '4', '1', '4', '4']","[49.03627229999984, 49.340003200020874, 50.36893820000114, 50.6648806000012, 51.314223099994706, 51.560917800001334]",1,6,# # # # # #,None
8,0.0,8,8.0,8.0,8.0,8.0,8.0,8.0,8.0,8.0,2,False,0.0,None,right,False,2,1,0,enc,0,0,0,[],[],1,6,4 1 3 3 1 4,4
9,5.8480283000099025,9,9.0,9.0,9.0,9.0,9.0,9.0,9.0,9.0,2,True,0.5,acc,right,True,2,1,2,ret,1,2,0,"['1', '4', '3', '3', '4', '1']","[60.633188500010874, 61.24720310000703, 63.93021150000277, 64.1838424000016, 66.24885080000968, 66.48121680002077]",1,6,# # # # # #,None
10,0.0,10,10.0,10.0,10.0,10.0,10.0,10.0,10.0,10.0,2,False,0.0,None,right,False,2,1,0,enc,0,0,0,[],[],1,6,1 3 4 2 2 2,4
11,7.524133800005075,11,11.0,11.0,11.0,11.0,11.0,11.0,11.0,11.0,2,True,0.5,acc,right,True,2,1,4,ret,1,4,0,"['2', '2', '4', '2', '3', '1']","[75.36294940000516, 75.59611919999588, 77.5980234000017, 78.20012409999617, 82.61615929999971, 82.88708320001024]",1,6,# # # # # #,None
12,0.0,12,12.0,12.0,12.0,12.0,12.0,12.0,12.0,12.0,3,False,0.0,None,right,False,2,1,0,enc,0,0,0,[],[],1,6,4 1 1 1 4 3,6
13,2.474894100014353,13,13.0,13.0,13.0,13.0,13.0,13.0,13.0,13.0,3,True,0.5,acc,right,True,2,1,5,ret,1,5,0,"['3', '4', '1', '1', '4', '4']","[90.20811999999569, 90.46415250000427, 90.84411720000207, 92.18216540000867, 92.43800120000378, 92.68301410001004]",1,6,# # # # # #,None
14,0.0,14,14.0,14.0,14.0,14.0,14.0,14.0,14.0,14.0,2,False,0.0,None,right,False,2,1,0,enc,0,0,1,[],[],1,6,1 2 3 4 3 1,4
15,5.973663000011584,15,15.0,15.0,15.0,15.0,15.0,15.0,15.0,15.0,2,True,0.5,acc,right,True,2,1,3,ret,1,3,1,"['1', '5', '4', '3', '3', '1']","[106.41765059999307, 106.9060301000136, 110.07028990000254, 110.33303390000947, 112.17956200000481, 112.39131360000465]",1,6,# # # # # #,None
16,0.0,16,16.0,16.0,16.0,16.0,16.0,0.0,0.0,,3,False,0.0,None,right,False,2,1,0,enc,0,0,1,[],[],1,6,4 2 2 1 1 2,6
17,2.1774978000030387,17,17.0,17.0,17.0,17.0,17.0,1.0,1.0,,3,True,0.5,acc,right,True,2,1,5,ret,1,5,1,"['4', '2', '2', '1', '2', '2']","[5.745213199988939, 6.20063810001011, 6.4608454999979585, 7.412446300004376, 7.682579599990277, 7.922710999991978]",1,6,# # # # # #,None
18,0.0,18,18.0,18.0,18.0,18.0,18.0,2.0,2.0,,3,False,0.0,None,right,False,2,1,0,enc,0,0,1,[],[],1,6,3 3 2 2 3 3,6
19,3.01615480001783,19,19.0,19.0,19.0,19.0,19.0,3.0,3.0,,3,True,0.5,acc,right,False,2,1,6,ret,1,10,1,"['3', '3', '2', '2', '3', '3']","[14.693484099989291, 15.277747200016165, 15.820573800010607, 17.10160709999036, 17.448712500015972, 17.70963890000712]",1,6,# # # # # #,None
20,0.0,20,20.0,20.0,20.0,20.0,20.0,4.0,4.0,,2,False,0.0,None,right,False,2,1,0,enc,0,0,0,[],[],1,6,1 4 4 2 2 1,4
21,6.586216800002147,21,21.0,21.0,21.0,21.0,21.0,5.0,5.0,,2,True,0.5,acc,right,True,2,1,5,ret,1,5,0,"['1', '2', '2', '4', '1', '1']","[27.582505200000014, 28.216266400006134, 30.01664119999623, 30.483126200007973, 32.47493190001114, 34.16872200000216]",1,6,# # # # # #,None
22,0.0,22,22.0,22.0,22.0,22.0,22.0,6.0,6.0,,3,False,0.0,None,right,False,2,1,0,enc,0,0,0,[],[],1,6,2 3 3 2 4 1,6
23,2.506839300011052,23,23.0,23.0,23.0,23.0,23.0,7.0,7.0,,3,True,0.5,acc,right,False,2,1,6,ret,1,10,0,"['1', '4', '2', '3', '3', '2']","[42.780741099995794, 43.0557325000118, 43.79460470000049, 44.67131189999054, 44.94255639999756, 45.287580400006846]",1,6,# # # # # #,None
24,0.0,24,24.0,24.0,24.0,24.0,24.0,8.0,8.0,,2,False,0.0,None,right,False,2,1,0,enc,0,0,0,[],[],1,6,4 3 2 1 3 4,4
25,3.432981000019936,25,25.0,25.0,25.0,25.0,25.0,9.0,9.0,,2,True,0.5,acc,right,False,2,1,6,ret,1,10,0,"['4', '3', '1', '2', '3', '4']","[55.35153459999128, 55.685594500013394, 56.491803999990225, 56.755450500000734, 58.5679805999971, 58.78451560001122]",1,6,# # # # # #,None
26,0.0,26,26.0,26.0,26.0,26.0,26.0,10.0,10.0,,2,False,0.0,None,right,False,2,1,0,enc,0,0,1,[],[],1,6,4 3 3 1 1 2,4
27,4.218102499988163,27,27.0,27.0,27.0,27.0,27.0,11.0,11.0,,2,True,0.5,acc,right,True,2,1,5,ret,1,5,1,"['4', '3', '2', '1', '1', '2']","[67.953642700013, 69.01469700000598, 70.55955840001116, 70.77661970001645, 72.03058930000407, 72.17174520000117]",1,6,# # # # # #,None
28,0.0,28,28.0,28.0,28.0,28.0,28.0,12.0,12.0,,3,False,0.0,None,right,False,2,1,0,enc,0,0,0,[],[],1,6,2 3 4 2 2 1,6
29,4.191129599988926,29,29.0,29.0,29.0,29.0,29.0,13.0,13.0,,3,True,0.5,acc,right,False,2,1,6,ret,1,10,0,"['1', '2', '2', '4', '3', '2']","[79.99965820001671, 80.9586501000158, 81.21766080000089, 83.50465519999852, 83.93660260000615, 84.19078780000564]",1,6,# # # # # #,None
30,0.0,30,30.0,30.0,30.0,30.0,30.0,14.0,14.0,,2,False,0.0,None,right,False,2,1,0,enc,0,0,1,[],[],1,6,4 2 3 4 2 1,4
31,3.966276899998775,31,31.0,31.0,31.0,31.0,31.0,15.0,15.0,,2,True,0.5,acc,right,True,2,1,3,ret,1,3,1,"['4', '3', '2', '4', '3', '1']","[96.55060809999122, 96.79373050000868, 98.5937688999984, 98.80838349999976, 100.31745890001184, 100.51688499999]",1,6,# # # # # #,None
32,0.0,32,32.0,32.0,32.0,32.0,32.0,16.0,16.0,,2,False,0.0,None,right,False,2,1,0,enc,0,0,1,[],[],1,6,1 4 1 3 2 4,4
33,2.5220394999778364,33,33.0,33.0,33.0,33.0,33.0,17.0,17.0,,2,True,0.5,acc,right,False,2,1,6,ret,1,10,1,"['1', '4', '1', '3', '2', '4']","[109.40959240001393, 109.61467539999285, 110.11953160000849, 111.16857119998895, 111.65453780000098, 111.93163189999177]",1,6,# # # # # #,None
34,0.0,34,34.0,34.0,34.0,34.0,34.0,18.0,18.0,,3,False,0.0,None,right,False,2,1,0,enc,0,0,0,[],[],1,6,2 3 3 3 3 4,6
35,4.445946699997876,35,35.0,35.0,35.0,35.0,35.0,19.0,19.0,,3,True,0.5,acc,right,False,2,1,6,ret,1,10,0,"['4', '3', '3', '3', '3', '2']","[118.49961339999572, 118.82759130001068, 119.08755500000552, 122.37064619999728, 122.72789509998984, 122.9455600999936]",1,6,# # # # # #,None
36,0.0,36,36.0,36.0,36.0,36.0,36.0,20.0,20.0,,3,False,0.0,None,right,False,2,1,0,enc,0,0,1,[],[],1,6,1 1 3 2 2 4,6
37,2.114209599996684,37,37.0,37.0,37.0,37.0,37.0,21.0,21.0,,3,True,0.5,acc,right,False,2,1,6,ret,1,10,1,"['1', '1', '3', '2', '2', '4']","[130.32457610001438, 130.5945406999963, 131.422498800006, 131.95477650000248, 132.19365420000395, 132.43878570001107]",1,6,# # # # # #,None
38,0.0,38,38.0,38.0,38.0,38.0,38.0,22.0,22.0,,2,False,0.0,None,right,False,2,1,0,enc,0,0,0,[],[],1,6,4 1 1 1 4 4,4
39,3.9061936999787576,39,39.0,39.0,39.0,39.0,39.0,23.0,23.0,,2,True,0.5,acc,right,False,2,1,6,ret,1,10,0,"['4', '4', '1', '1', '1', '4']","[141.4405980000156, 141.7839873000048, 142.9846053000074, 143.21033860000898, 145.15009710000595, 145.34679169999436]",1,6,# # # # # #,None
40,0.0,40,40.0,40.0,40.0,40.0,0.0,0.0,,,3,False,0.0,None,right,False,2,1,0,enc,0,0,1,[],[],2,6,3 2 2 3 2 3,6
41,2.5638713000225835,41,41.0,41.0,41.0,41.0,1.0,1.0,,,3,True,0.5,acc,right,False,2,1,6,ret,1,10,1,"['3', '2', '2', '3', '2', '3']","[4.807787199999439, 5.16154450000613, 5.512545100005809, 6.900626300019212, 7.112943200016161, 7.371658500022022]",2,6,# # # # # #,None
42,0.0,42,42.0,42.0,42.0,42.0,2.0,2.0,,,2,False,0.0,None,right,False,2,1,0,enc,0,0,1,[],[],2,6,2 4 4 4 4 1,4
43,2.5631582000060007,43,43.0,43.0,43.0,43.0,3.0,3.0,,,2,True,0.5,acc,right,False,2,1,6,ret,1,10,1,"['2', '4', '4', '4', '4', '1']","[16.239611900004093, 16.795622500008903, 17.827287799998885, 18.121567800000776, 18.581658000010066, 18.802770100010093]",2,6,# # # # # #,None
44,0.0,44,44.0,44.0,44.0,44.0,4.0,4.0,,,3,False,0.0,None,right,False,2,1,0,enc,0,0,1,[],[],2,6,1 4 1 4 4 3,6
45,5.019188400008716,45,45.0,45.0,45.0,45.0,5.0,5.0,,,3,True,0.5,acc,right,True,2,1,2,ret,1,2,1,"['4', '1', '4', '4', '1', '3']","[26.31368069999735, 26.562675200024387, 28.979670200002147, 29.297658800001955, 31.15060380002251, 31.332869100006064]",2,6,# # # # # #,None
46,0.0,46,46.0,46.0,46.0,46.0,6.0,6.0,,,3,False,0.0,None,right,False,2,1,0,enc,0,0,0,[],[],2,6,1 3 1 3 1 3,6
47,2.016946000017924,47,47.0,47.0,47.0,47.0,7.0,7.0,,,3,True,0.5,acc,right,False,2,1,6,ret,1,10,0,"['3', '1', '3', '1', '3', '1']","[39.71463410000433, 39.96271130000241, 40.46055620000698, 41.32970510001178, 41.47855200001504, 41.731580100022256]",2,6,# # # # # #,None
48,0.0,48,48.0,48.0,48.0,48.0,8.0,8.0,,,2,False,0.0,None,right,False,2,1,0,enc,0,0,0,[],[],2,6,2 1 4 4 4 2,4
49,6.329077500005951,49,49.0,49.0,49.0,49.0,9.0,9.0,,,2,True,0.5,acc,right,True,2,1,4,ret,1,4,0,"['2', '4', '1', '4', '1', '4']","[50.989760299999034, 51.528632400004426, 53.372631400008686, 53.8035235000134, 57.126743300003, 57.318837800004985]",2,6,# # # # # #,None
50,0.0,50,50.0,50.0,50.0,50.0,10.0,10.0,,,3,False,0.0,None,right,False,2,1,0,enc,0,0,0,[],[],2,6,3 3 4 1 2 3,6
51,2.230690800002776,51,51.0,51.0,51.0,51.0,11.0,11.0,,,3,True,0.5,acc,right,True,2,1,4,ret,1,4,0,"['3', '2', '1', '3', '3', '4']","[64.63989580000634, 64.88564849999966, 65.43563320001704, 66.33858390001114, 66.57566870001028, 66.87058660000912]",2,6,# # # # # #,None
52,0.0,52,52.0,52.0,52.0,52.0,12.0,12.0,,,2,False,0.0,None,right,False,2,1,0,enc,0,0,0,[],[],2,6,4 2 2 2 3 1,4
53,3.929993400000967,53,53.0,53.0,53.0,53.0,13.0,13.0,,,2,True,0.5,acc,right,False,2,1,6,ret,1,10,0,"['1', '3', '2', '2', '2', '4']","[76.45362290000776, 76.99464580000495, 77.40252400000463, 77.6373459000024, 80.10277110000607, 80.38361630000873]",2,6,# # # # # #,None
54,0.0,54,54.0,54.0,54.0,54.0,14.0,14.0,,,3,False,0.0,None,right,False,2,1,0,enc,0,0,1,[],[],2,6,3 2 2 1 1 4,6
55,1.6006971999886446,55,55.0,55.0,55.0,55.0,15.0,15.0,,,3,True,0.5,acc,right,True,2,1,4,ret,1,4,1,"['3', '2', '2', '1', '4', '1']","[88.71275780000724, 88.94171539999661, 89.20051750002312, 89.77259460001369, 89.97145660000388, 90.31345499999588]",2,6,# # # # # #,None
56,0.0,56,56.0,56.0,56.0,56.0,16.0,16.0,,,2,False,0.0,None,right,False,2,1,0,enc,0,0,0,[],[],2,6,4 3 2 1 2 2,4
57,4.347290800011252,57,57.0,57.0,57.0,57.0,17.0,17.0,,,2,True,0.5,acc,right,True,2,1,4,ret,1,4,0,"['2', '2', '1', '3', '1', '4']","[99.51554250001209, 99.76753030001419, 100.89570500000264, 101.61444110001321, 103.6744827000075, 103.86283330002334]",2,6,# # # # # #,None
58,0.0,58,58.0,58.0,58.0,58.0,18.0,18.0,,,2,False,0.0,None,right,False,2,1,0,enc,0,0,1,[],[],2,6,3 1 4 4 2 3,4
59,3.5061347000009846,59,59.0,59.0,59.0,59.0,19.0,19.0,,,2,True,0.5,acc,right,True,2,1,4,ret,1,4,1,"['3', '1', '2', '4', '3', '3']","[113.8954417000059, 114.29462230001809, 115.5336132000084, 115.76156710000942, 117.14564309999696, 117.40157640000689]",2,6,# # # # # #,None
60,0.0,60,60.0,60.0,60.0,60.0,20.0,20.0,,,3,False,0.0,None,right,False,2,1,0,enc,0,0,0,[],[],2,6,1 1 4 4 3 2,6
61,3.5839000999985733,61,61.0,61.0,61.0,61.0,21.0,21.0,,,3,True,0.5,acc,right,False,2,1,6,ret,1,10,0,"['2', '3', '4', '4', '1', '1']","[125.406641700014, 125.75737360000494, 126.2945796000131, 128.12079020001693, 128.62355650000973, 128.99054180001258]",2,6,# # # # # #,None
62,0.0,62,62.0,62.0,62.0,62.0,22.0,22.0,,,2,False,0.0,None,right,False,2,1,0,enc,0,0,1,[],[],2,6,4 2 1 2 4 1,4
63,4.206078800023533,63,63.0,63.0,63.0,63.0,23.0,23.0,,,2,True,0.5,acc,right,False,2,1,6,ret,1,10,1,"['4', '2', '1', '2', '4', '1']","[138.80548249999993, 139.31059430001187, 140.69054450001568, 140.75551080002333, 142.53458610002417, 143.01156130002346]",2,6,# # # # # #,None
64,0.0,64,64.0,64.0,64.0,0.0,0.0,,,,2,False,0.0,None,right,False,2,1,0,enc,0,0,1,[],[],3,6,1 3 3 1 2 3,4
65,6.503953399980674,65,65.0,65.0,65.0,1.0,1.0,,,,2,True,0.5,acc,right,True,2,1,5,ret,1,5,1,"['1', '3', '2', '1', '2', '3']","[7.418801000021631, 7.966731000022264, 10.982822300022235, 11.218637600017246, 13.722863300004974, 13.922754400002304]",3,6,# # # # # #,None
66,0.0,66,66.0,66.0,66.0,2.0,2.0,,,,3,False,0.0,None,right,False,2,1,0,enc,0,0,0,[],[],3,6,2 3 1 2 2 1,6
67,5.120305000018561,67,67.0,67.0,67.0,3.0,3.0,,,,3,True,0.5,acc,right,False,2,1,6,ret,1,10,0,"['1', '2', '2', '1', '3', '2']","[21.102468500001123, 21.398969100002432, 21.69943940002122, 23.227741400012746, 25.95267640001839, 26.222773500019684]",3,6,# # # # # #,None
68,0.0,68,68.0,68.0,68.0,4.0,4.0,,,,3,False,0.0,None,right,False,2,1,0,enc,0,0,1,[],[],3,6,4 1 3 2 2 1,6
69,2.3398228000151,69,69.0,69.0,69.0,5.0,5.0,,,,3,True,0.5,acc,right,False,2,1,6,ret,1,10,1,"['4', '1', '3', '2', '2', '1']","[33.78770250000525, 34.13466930002323, 35.27965710000717, 35.69767770002363, 35.922729900019476, 36.12752530002035]",3,6,# # # # # #,None
70,0.0,70,70.0,70.0,70.0,6.0,6.0,,,,2,False,0.0,None,right,False,2,1,0,enc,0,0,0,[],[],3,6,3 4 4 3 4 1,4
71,5.214833700010786,71,71.0,71.0,71.0,7.0,7.0,,,,2,True,0.5,acc,right,True,2,1,5,ret,1,5,0,"['1', '4', '3', '4', '1', '3']","[46.03145070001483, 46.40766440000152, 48.74279879999813, 49.07770470000105, 51.028483400004916, 51.246284400025615]",3,6,# # # # # #,None
72,0.0,72,72.0,72.0,72.0,8.0,8.0,,,,3,False,0.0,None,right,False,2,1,0,enc,0,0,1,[],[],3,6,1 2 2 4 4 3,6
73,2.85284330000286,73,73.0,73.0,73.0,9.0,9.0,,,,3,True,0.5,acc,right,False,2,1,6,ret,1,10,1,"['1', '2', '2', '4', '4', '3']","[58.01178230001824, 58.270738999999594, 58.620694400015054, 59.69271010000375, 59.93895530002192, 60.8646256000211]",3,6,# # # # # #,None
74,0.0,74,74.0,74.0,74.0,10.0,10.0,,,,2,False,0.0,None,right,False,2,1,0,enc,0,0,0,[],[],3,6,4 4 3 2 3 3,4
75,4.497229700005847,75,75.0,75.0,75.0,11.0,11.0,,,,2,True,0.5,acc,right,True,2,1,5,ret,1,5,0,"['3', '3', '2', '4', '4', '4']","[70.04662850001478, 70.31972910001059, 72.18872520001605, 72.43082170002162, 74.35065430001123, 74.54385820002062]",3,6,# # # # # #,None
76,0.0,76,76.0,76.0,76.0,12.0,12.0,,,,3,False,0.0,None,right,False,2,1,0,enc,0,0,0,[],[],3,6,2 4 3 2 2 4,6
77,3.4892509000201244,77,77.0,77.0,77.0,13.0,13.0,,,,3,True,0.5,acc,right,True,2,1,5,ret,1,5,0,"['4', '2', '2', '3', '1', '2']","[81.92461580000236, 82.29859070002567, 82.55261920002522, 84.96194259999902, 85.19893330000923, 85.41386670002248]",3,6,# # # # # #,None
78,0.0,78,78.0,78.0,78.0,14.0,14.0,,,,2,False,0.0,None,right,False,2,1,0,enc,0,0,0,[],[],3,6,2 3 4 4 1 2,4
79,6.136840700026369,79,79.0,79.0,79.0,15.0,15.0,,,,2,True,0.5,acc,right,True,2,1,4,ret,1,4,0,"['2', '1', '3', '4', '3', '4']","[94.82772729999851, 95.39285540001583, 96.93055790002109, 97.35772630001884, 100.72171290000551, 100.96456800002488]",3,6,# # # # # #,None
80,0.0,80,80.0,80.0,80.0,16.0,16.0,,,,3,False,0.0,None,right,False,2,1,0,enc,0,0,1,[],[],3,6,2 1 1 2 4 1,6
81,1.6773838999797592,81,81.0,81.0,81.0,17.0,17.0,,,,3,True,0.5,acc,right,False,2,1,6,ret,1,10,1,"['2', '1', '1', '2', '4', '1']","[108.06731830001809, 108.31475710001541, 108.57295329999761, 109.17508730001282, 109.46775050001452, 109.74470219999785]",3,6,# # # # # #,None
82,0.0,82,82.0,82.0,82.0,18.0,18.0,,,,3,False,0.0,None,right,False,2,1,0,enc,0,0,0,[],[],3,6,3 2 1 1 3 2,6
83,3.803331400005845,83,83.0,83.0,83.0,19.0,19.0,,,,3,True,0.5,acc,right,True,2,1,3,ret,1,3,0,"['2', '4', '1', '3', '2', '1']","[117.65550439999788, 117.92139709999901, 118.73974200000521, 120.98358130000997, 121.22059330000775, 121.45883580000373]",3,6,# # # # # #,None
84,0.0,84,84.0,84.0,84.0,20.0,20.0,,,,2,False,0.0,None,right,False,2,1,0,enc,0,0,1,[],[],3,6,1 4 1 4 2 1,4
85,1.6847731999878306,85,85.0,85.0,85.0,21.0,21.0,,,,2,True,0.5,acc,right,False,2,1,6,ret,1,10,1,"['1', '4', '1', '4', '2', '1']","[130.32564580001053, 130.63659619999817, 130.98465250001755, 131.3615791000193, 131.74065940000582, 132.01041899999836]",3,6,# # # # # #,None
86,0.0,86,86.0,86.0,86.0,22.0,22.0,,,,2,False,0.0,None,right,False,2,1,0,enc,0,0,1,[],[],3,6,1 3 2 1 1 3,4
87,1.5861360999988392,87,87.0,87.0,87.0,23.0,23.0,,,,2,True,0.5,acc,right,False,2,1,6,ret,1,10,1,"['1', '3', '2', '1', '1', '3']","[141.1586181000166, 141.49457390001044, 141.87644390002242, 142.11552099999972, 142.49248149999767, 142.74475420001545]",3,6,# # # # # #,None
88,0.0,88,88.0,88.0,0.0,0.0,,,,,2,False,0.0,None,right,False,2,1,0,enc,0,0,1,[],[],4,6,4 4 1 3 2 2,4
89,3.2806829999899487,89,89.0,89.0,1.0,1.0,,,,,2,True,0.5,acc,right,False,2,1,6,ret,1,10,1,"['4', '4', '1', '3', '2', '2']","[8.314400300005218, 8.671506899991073, 10.376279199990677, 10.594430299999658, 11.388295000011567, 11.595083299995167]",4,6,# # # # # #,None
90,0.0,90,90.0,90.0,2.0,2.0,,,,,2,False,0.0,None,right,False,2,1,0,enc,0,0,0,[],[],4,6,3 2 1 3 4 3,4
91,6.7910567999933855,91,91.0,91.0,3.0,3.0,,,,,2,True,0.5,acc,right,True,2,1,5,ret,1,5,0,"['3', '4', '2', '1', '2', '3']","[21.067255100002512, 21.355497499986086, 22.92703600000823, 23.16122730000643, 26.986426999996183, 27.858311899995897]",4,6,# # # # # #,None
92,0.0,92,92.0,92.0,4.0,4.0,,,,,3,False,0.0,None,right,False,2,1,0,enc,0,0,0,[],[],4,6,2 3 2 3 1 2,6
93,3.7220689999812735,93,93.0,93.0,5.0,5.0,,,,,3,True,0.5,acc,right,False,2,1,6,ret,1,10,0,"['2', '1', '3', '2', '3', '2']","[35.20020650001243, 35.417436199990334, 36.37536539998837, 38.47039480000967, 38.69230080000125, 38.9222754999937]",4,6,# # # # # #,None
94,0.0,94,94.0,94.0,6.0,6.0,,,,,3,False,0.0,None,right,False,2,1,0,enc,0,0,1,[],[],4,6,4 4 4 2 2 1,6
95,2.3407269000017545,95,95.0,95.0,7.0,7.0,,,,,3,True,0.5,acc,right,False,2,1,6,ret,1,10,1,"['4', '4', '4', '2', '2', '1']","[45.701380699989386, 45.99341739999363, 46.55414059999748, 47.56627879998996, 47.82527959998697, 48.04210759999114]",4,6,# # # # # #,None
96,0.0,96,96.0,96.0,8.0,8.0,,,,,2,False,0.0,None,right,False,2,1,0,enc,0,0,1,[],[],4,6,3 1 4 3 4 1,4
97,5.3489522000018015,97,97.0,97.0,9.0,9.0,,,,,2,True,0.5,acc,right,True,2,1,4,ret,1,4,1,"['3', '4', '4', '3', '1', '1']","[58.190150200010976, 58.51203390001319, 60.58214980000048, 60.805452100001276, 63.321770100010326, 63.53910240001278]",4,6,# # # # # #,None
98,0.0,98,98.0,98.0,10.0,10.0,,,,,3,False,0.0,None,right,False,2,1,0,enc,0,0,1,[],[],4,6,3 1 4 2 4 3,6
99,4.096749299991643,99,99.0,99.0,11.0,11.0,,,,,3,True,0.5,acc,right,True,2,1,4,ret,1,4,1,"['3', '1', '4', '4', '1', '3']","[71.44149210001342, 71.71539170001051, 72.35222719999729, 74.26718470000196, 74.51615579999634, 75.53824140000506]",4,6,# # # # # #,None
100,0.0,100,100.0,100.0,12.0,12.0,,,,,2,False,0.0,None,right,False,2,1,0,enc,0,0,0,[],[],4,6,2 1 4 1 4 4,4
101,7.139105099980953,101,101.0,101.0,13.0,13.0,,,,,2,True,0.5,acc,right,True,2,1,5,ret,1,5,0,"['4', '4', '1', '2', '1', '2']","[83.90820460001123, 84.13406330000726, 88.21550140000181, 89.29123229999095, 90.88445630000206, 91.04730969999218]",4,6,# # # # # #,None
102,0.0,102,102.0,102.0,14.0,14.0,,,,,3,False,0.0,None,right,False,2,1,0,enc,0,0,0,[],[],4,6,4 4 4 2 2 3,6
103,1.704961400013417,103,103.0,103.0,15.0,15.0,,,,,3,True,0.5,acc,right,False,2,1,6,ret,1,10,0,"['3', '2', '2', '4', '4', '4']","[98.33026149999932, 98.67619100000593, 99.06939439999405, 99.49912540000514, 99.76129250001395, 100.03522290001274]",4,6,# # # # # #,None
104,0.0,104,104.0,104.0,16.0,16.0,,,,,2,False,0.0,None,right,False,2,1,0,enc,0,0,1,[],[],4,6,4 2 3 2 4 3,4
105,7.97396580001805,105,105.0,105.0,17.0,17.0,,,,,2,True,0.5,acc,right,True,2,1,2,ret,1,2,1,"['3', '3', '2', '1', '4', '3']","[110.07420939998701, 112.33621599999606, 114.1402029999881, 114.32622970000375, 117.58337639999809, 118.04817520000506]",4,6,# # # # # #,None
106,0.0,106,106.0,106.0,18.0,18.0,,,,,2,False,0.0,None,right,False,2,1,0,enc,0,0,0,[],[],4,6,4 4 2 3 3 4,4
107,5.026911799999652,107,107.0,107.0,19.0,19.0,,,,,2,True,0.5,acc,right,False,2,1,6,ret,1,10,0,"['4', '3', '3', '2', '4', '4']","[128.4382431000122, 128.97114229999715, 130.37692609999795, 130.69019950000802, 133.23521370001254, 133.46515490001184]",4,6,# # # # # #,None
108,0.0,108,108.0,108.0,20.0,20.0,,,,,3,False,0.0,None,right,False,2,1,0,enc,0,0,1,[],[],4,6,3 3 3 1 1 2,6
109,1.9240440000139645,109,109.0,109.0,21.0,21.0,,,,,3,True,0.5,acc,right,False,2,1,6,ret,1,10,1,"['3', '3', '3', '1', '1', '2']","[140.56413949999842, 140.8401964000077, 141.09608540000045, 142.00047609998728, 142.22807770001236, 142.48818350001238]",4,6,# # # # # #,None
110,0.0,110,110.0,110.0,22.0,22.0,,,,,3,False,0.0,None,right,False,2,1,0,enc,0,0,0,[],[],4,6,1 4 3 2 2 1,6
111,5.536019199993461,111,111.0,111.0,23.0,23.0,,,,,3,True,0.5,acc,right,True,2,1,4,ret,1,4,0,"['1', '2', '2', '3', '1', '4']","[149.58717149999575, 149.8572692000016, 150.10823240000173, 154.58223080000607, 154.87112470000284, 155.1231906999892]",4,6,# # # # # #,None
112,0.0,112,112.0,0.0,0.0,,,,,,3,False,0.0,None,right,False,2,1,0,enc,0,0,1,[],[],5,6,4 3 1 1 1 1,6
113,1.4798758999968409,113,113.0,1.0,1.0,,,,,,3,True,0.5,acc,right,False,2,1,6,ret,1,10,1,"['4', '3', '1', '1', '1', '1']","[5.207068899995647, 5.51833859999897, 5.899799899983918, 6.202261400001589, 6.402424300002167, 6.686944799992489]",5,6,# # # # # #,None
114,0.0,114,114.0,2.0,2.0,,,,,,3,False,0.0,None,right,False,2,1,0,enc,0,0,1,[],[],5,6,2 4 2 3 2 4,6
115,3.832754300005036,115,115.0,3.0,3.0,,,,,,3,True,0.5,acc,right,True,2,1,2,ret,1,2,1,"['2', '3', '2', '2', '4', '1']","[14.96812289999798, 15.15211259998614, 15.910161199979484, 18.26286779998918, 18.574801799986744, 18.800877200003015]",5,6,# # # # # #,None
116,0.0,116,116.0,4.0,4.0,,,,,,2,False,0.0,None,right,False,2,1,0,enc,0,0,1,[],[],5,6,4 3 3 2 2 2,4
117,5.678960699995514,117,117.0,5.0,5.0,,,,,,2,True,0.5,acc,right,True,2,1,5,ret,1,5,1,"['4', '3', '4', '2', '2', '2']","[28.398895199992694, 28.867928299994674, 32.41697459999705, 32.828798300004564, 33.84699499999988, 34.07785589998821]",5,6,# # # # # #,None
118,0.0,118,118.0,6.0,6.0,,,,,,2,False,0.0,None,right,False,2,1,0,enc,0,0,1,[],[],5,6,2 3 1 3 2 3,4
119,6.206755000021076,119,119.0,7.0,7.0,,,,,,2,True,0.5,acc,right,True,2,1,2,ret,1,2,1,"['2', '3', '2', '2', '3', '2']","[45.41191159997834, 46.45298229999025, 48.728947399999015, 48.971845099993516, 51.42203149999841, 51.618666599999415]",5,6,# # # # # #,None
120,0.0,120,120.0,8.0,8.0,,,,,,2,False,0.0,None,right,False,2,1,0,enc,0,0,0,[],[],5,6,3 2 3 1 3 4,4
121,5.166139400011161,121,121.0,9.0,9.0,,,,,,2,True,0.5,acc,right,True,2,1,4,ret,1,4,0,"['4', '3', '2', '3', '1', '3']","[60.99091959997895, 61.601015799999004, 62.92273769999156, 63.17675669997698, 65.93380339999567, 66.15705899999011]",5,6,# # # # # #,None
122,0.0,122,122.0,10.0,10.0,,,,,,3,False,0.0,None,right,False,2,1,0,enc,0,0,0,[],[],5,6,1 3 1 4 1 1,6
123,2.1509898000222165,123,123.0,11.0,11.0,,,,,,3,True,0.5,acc,right,False,2,1,6,ret,1,10,0,"['1', '1', '4', '1', '3', '1']","[74.00487419997808, 74.24982440000167, 74.61489729999448, 75.68926329998067, 75.90386500000022, 76.15586400000029]",5,6,# # # # # #,None
124,0.0,124,124.0,12.0,12.0,,,,,,3,False,0.0,None,right,False,2,1,0,enc,0,0,0,[],[],5,6,3 3 4 4 1 1,6
125,3.0810420000052545,125,125.0,13.0,13.0,,,,,,3,True,0.5,acc,right,False,2,1,6,ret,1,10,0,"['1', '1', '4', '4', '3', '3']","[84.80382859997917, 85.02296959998785, 85.32377109999652, 87.39289649997954, 87.68577739998, 87.88487059998442]",5,6,# # # # # #,None
126,0.0,126,126.0,14.0,14.0,,,,,,2,False,0.0,None,right,False,2,1,0,enc,0,0,0,[],[],5,6,1 4 1 2 4 4,4
127,4.948045199998886,127,127.0,15.0,15.0,,,,,,2,True,0.5,acc,right,False,2,1,6,ret,1,10,0,"['4', '4', '2', '1', '4', '1']","[97.08892929999274, 97.29826509999111, 99.02285999999731, 99.11312309998902, 101.79603769999812, 102.03697449999163]",5,6,# # # # # #,None
128,0.0,128,128.0,16.0,16.0,,,,,,2,False,0.0,None,right,False,2,1,0,enc,0,0,1,[],[],5,6,1 2 2 1 4 2,4
129,2.3060794000048186,129,129.0,17.0,17.0,,,,,,2,True,0.5,acc,right,False,2,1,6,ret,1,10,1,"['1', '2', '2', '1', '4', '2']","[110.70884939999087, 111.21178230000078, 111.61481009999989, 111.74591830000281, 112.75094579998404, 113.01492879999569]",5,6,# # # # # #,None
130,0.0,130,130.0,18.0,18.0,,,,,,3,False,0.0,None,right,False,2,1,0,enc,0,0,1,[],[],5,6,2 2 1 3 1 3,6
131,1.8880421000067145,131,131.0,19.0,19.0,,,,,,3,True,0.5,acc,right,True,2,1,2,ret,1,2,1,"['2', '1', '2', '4', '1', '4']","[120.02476229998865, 120.23771549999947, 120.75016139997751, 121.30781489997753, 121.51160859997617, 121.91280439999537]",5,6,# # # # # #,None
132,0.0,132,132.0,20.0,20.0,,,,,,2,False,0.0,None,right,False,2,1,0,enc,0,0,0,[],[],5,6,3 4 2 3 1 4,4
133,6.3009232000040365,133,133.0,21.0,21.0,,,,,,2,True,0.5,acc,right,True,2,1,5,ret,1,5,0,"['4', '1', '3', '2', '2', '3']","[132.39092109998455, 133.27272589999484, 135.031782999984, 135.35076239999034, 138.52488230000017, 138.6918442999886]",5,6,# # # # # #,None
134,0.0,134,134.0,22.0,22.0,,,,,,3,False,0.0,None,right,False,2,1,0,enc,0,0,0,[],[],5,6,2 3 3 3 4 2,6
135,5.634252000018022,135,135.0,23.0,23.0,,,,,,3,True,0.5,acc,right,True,2,1,4,ret,1,4,0,"['2', '3', '3', '3', '2', '2']","[148.22552049998194, 148.68956869997783, 150.61673359997803, 153.35984969997662, 153.58981459998176, 153.85977249999996]",5,6,# # # # # #,None
136,0.0,136,0.0,0.0,,,,,,,2,False,0.0,None,right,False,2,1,0,enc,0,0,1,[],[],6,6,2 3 1 1 2 3,4
137,1.3452263000071978,137,1.0,1.0,,,,,,,2,True,0.5,acc,right,False,2,1,6,ret,1,10,1,"['2', '3', '1', '1', '2', '3']","[6.41746699999203, 6.670185299997684, 7.0973055999784265, 7.314458599983482, 7.539521500002593, 7.762693299999228]",6,6,# # # # # #,None
138,0.0,138,2.0,2.0,,,,,,,3,False,0.0,None,right,False,2,1,0,enc,0,0,1,[],[],6,6,2 3 3 4 2 2,6
139,1.6979100000171456,139,3.0,3.0,,,,,,,3,True,0.5,acc,right,False,2,1,6,ret,1,10,1,"['2', '3', '3', '4', '2', '2']","[14.355290399980731, 14.637238199997228, 14.885276899993187, 15.355247300001793, 15.840240799996536, 16.053200399997877]",6,6,# # # # # #,None
140,0.0,140,4.0,4.0,,,,,,,2,False,0.0,None,right,False,2,1,0,enc,0,0,0,[],[],6,6,3 1 2 4 4 4,4
141,2.570022700005211,141,5.0,5.0,,,,,,,2,True,0.5,acc,right,False,2,1,6,ret,1,10,0,"['4', '4', '4', '2', '1', '3']","[25.626275399990845, 25.901450499979546, 26.89431499998318, 27.260380599997006, 28.010365099995397, 28.196298099996056]",6,6,# # # # # #,None
142,0.0,142,6.0,6.0,,,,,,,3,False,0.0,None,right,False,2,1,0,enc,0,0,1,[],[],6,6,3 3 1 3 2 2,6
143,2.395752399985213,143,7.0,7.0,,,,,,,3,True,0.5,acc,right,False,2,1,6,ret,1,10,1,"['3', '3', '1', '3', '2', '2']","[35.90961229999084, 36.19936139998026, 36.58836959998007, 37.82147219998296, 38.07406240000273, 38.30536469997605]",6,6,# # # # # #,None
144,0.0,144,8.0,8.0,,,,,,,2,False,0.0,None,right,False,2,1,0,enc,0,0,1,[],[],6,6,1 2 2 2 4 1,4
145,2.110127799998736,145,9.0,9.0,,,,,,,2,True,0.5,acc,right,False,2,1,6,ret,1,10,1,"['1', '2', '2', '2', '4', '1']","[47.445174899999984, 47.657087300001876, 47.92667379998602, 48.208249599992996, 49.340239999990445, 49.55530269999872]",6,6,# # # # # #,None
146,0.0,146,10.0,10.0,,,,,,,3,False,0.0,None,right,False,2,1,0,enc,0,0,1,[],[],6,6,3 1 4 4 2 4,6
147,3.4029732999915723,147,11.0,11.0,,,,,,,3,True,0.5,acc,right,True,2,1,3,ret,1,3,1,"['3', '1', '4', '2', '4', '2']","[59.10637389999465, 59.68430249998346, 59.981168600003, 61.62418250000337, 61.879091999988304, 62.50934719998622]",6,6,# # # # # #,None
148,0.0,148,12.0,12.0,,,,,,,3,False,0.0,None,right,False,2,1,0,enc,0,0,0,[],[],6,6,3 4 1 3 4 2,6
149,6.347835199994734,149,13.0,13.0,,,,,,,3,True,0.5,acc,right,False,2,1,6,ret,1,10,0,"['2', '4', '3', '1', '4', '3']","[69.98921669999254, 70.69128299999284, 71.30422629998066, 75.74228609999409, 76.0172842000029, 76.33705189998727]",6,6,# # # # # #,None
150,0.0,150,14.0,14.0,,,,,,,3,False,0.0,None,right,False,2,1,0,enc,0,0,0,[],[],6,6,1 2 1 3 1 1,6
151,3.0070292000018526,151,15.0,15.0,,,,,,,3,True,0.5,acc,right,False,2,1,6,ret,1,10,0,"['1', '1', '3', '1', '2', '1']","[84.83620979997795, 85.05016990000149, 85.41703949999646, 87.37031669999124, 87.61723909998545, 87.8432389999798]",6,6,# # # # # #,None
152,0.0,152,16.0,16.0,,,,,,,2,False,0.0,None,right,False,2,1,0,enc,0,0,1,[],[],6,6,2 1 4 3 3 2,4
153,4.372128000017256,153,17.0,17.0,,,,,,,2,True,0.5,acc,right,True,2,1,3,ret,1,3,1,"['4', '1', '3', '2', '3', '2']","[98.8642418999807, 99.17831930000102, 101.3272165999806, 101.59028039997793, 103.03413990000263, 103.23636989999795]",6,6,# # # # # #,None
154,0.0,154,18.0,18.0,,,,,,,2,False,0.0,None,right,False,2,1,0,enc,0,0,0,[],[],6,6,1 4 4 1 2 3,4
155,9.469073200016282,155,19.0,19.0,,,,,,,2,True,0.5,acc,right,True,2,1,5,ret,1,5,0,"['3', '2', '1', '4', '1', '1']","[113.94614749998436, 114.27127779999864, 120.8593309999851, 121.93927729999996, 122.30009159998735, 123.41522070000065]",6,6,# # # # # #,None
156,0.0,156,20.0,20.0,,,,,,,2,False,0.0,None,right,False,2,1,0,enc,0,0,0,[],[],6,6,2 1 2 3 4 4,4
157,2.4348080999916424,157,21.0,21.0,,,,,,,2,True,0.5,acc,right,False,2,1,6,ret,1,10,0,"['4', '4', '3', '2', '1', '2']","[132.47414690000005, 132.70038110000314, 133.77486659999704, 134.020119599998, 134.6970272999897, 134.9089549999917]",6,6,# # # # # #,None
158,0.0,158,22.0,22.0,,,,,,,3,False,0.0,None,right,False,2,1,0,enc,0,0,0,[],[],6,6,3 1 3 4 2 3,6
159,6.8675511999754235,159,23.0,23.0,,,,,,,3,True,0.5,acc,right,True,2,1,1,ret,1,1,0,"['4', '3', '4', '1', '4', '1']","[144.6807845000003, 147.20631189999403, 147.50113560000318, 151.10712400000193, 151.33410089998506, 151.54833569997572]",6,6,# # # # # #,None
160,0.0,0,0.0,,,,,,,,2,False,0.0,None,right,False,2,1,0,enc,0,0,1,[],[],7,6,2 4 4 2 1 3,4
161,2.5515610000002202,1,1.0,,,,,,,,2,True,0.5,acc,right,False,2,1,6,ret,1,10,1,"['2', '4', '4', '2', '1', '3']","[6.51012510000146, 6.808797100005904, 7.741678499995032, 8.04255290000583, 8.830778900010046, 9.06168610000168]",7,6,# # # # # #,None
162,0.0,2,2.0,,,,,,,,3,False,0.0,None,right,False,2,1,0,enc,0,0,1,[],[],7,6,2 4 3 1 4 4,6
163,3.5642078999953815,3,3.0,,,,,,,,3,True,0.5,acc,right,False,2,1,6,ret,1,10,1,"['2', '4', '3', '1', '4', '4']","[15.943605900014518, 16.79966260000947, 17.130638100003125, 19.015574399993056, 19.306463800021447, 19.5078138000099]",7,6,# # # # # #,None
164,0.0,4,4.0,,,,,,,,3,False,0.0,None,right,False,2,1,0,enc,0,0,1,[],[],7,6,3 3 4 4 4 1,6
165,1.945080900011817,5,5.0,,,,,,,,3,True,0.5,acc,right,False,2,1,6,ret,1,10,1,"['3', '3', '4', '4', '4', '1']","[27.552562700002454, 27.874568400002318, 28.3456400000141, 28.977659700001823, 29.2295970999985, 29.49764360001427]",7,6,# # # # # #,None
166,0.0,6,6.0,,,,,,,,2,False,0.0,None,right,False,2,1,0,enc,0,0,1,[],[],7,6,4 1 2 3 3 2,4
167,1.9639085000089835,7,7.0,,,,,,,,2,True,0.5,acc,right,False,2,1,6,ret,1,10,1,"['4', '1', '2', '3', '3', '2']","[38.425689600000624, 38.70452379999915, 39.45748780001304, 39.77257840000675, 40.15174540001317, 40.38959810000961]",7,6,# # # # # #,None
168,0.0,8,8.0,,,,,,,,3,False,0.0,None,right,False,2,1,0,enc,0,0,0,[],[],7,6,3 4 2 1 2 2,6
169,4.52430170000298,9,9.0,,,,,,,,3,True,0.5,acc,right,True,2,1,4,ret,1,4,0,"['2', '2', '1', '4', '1', '3']","[47.956627600011416, 48.184246100019664, 48.5386950999964, 51.472625499998685, 52.06272139999783, 52.480929300014395]",7,6,# # # # # #,None
170,0.0,10,10.0,,,,,,,,2,False,0.0,None,right,False,2,1,0,enc,0,0,0,[],[],7,6,4 4 3 4 3 3,4
171,5.109259100019699,11,11.0,,,,,,,,2,True,0.5,acc,right,True,2,1,4,ret,1,4,0,"['3', '3', '4', '3', '3', '1']","[64.45354950000183, 64.70144289999735, 67.33060420001857, 67.61658890001127, 69.3734999000153, 69.56280860002153]",7,6,# # # # # #,None
172,0.0,12,12.0,,,,,,,,2,False,0.0,None,right,False,2,1,0,enc,0,0,0,[],[],7,6,4 1 4 1 4 2,4
173,2.369134499982465,13,13.0,,,,,,,,2,True,0.5,acc,right,False,2,1,6,ret,1,10,0,"['2', '4', '1', '4', '1', '4']","[79.48232390001067, 79.89548400000785, 80.9485140000179, 81.23145419999491, 81.61559600001783, 81.85145839999313]",7,6,# # # # # #,None
174,0.0,14,14.0,,,,,,,,3,False,0.0,None,right,False,2,1,0,enc,0,0,1,[],[],7,6,2 1 4 3 1 2,6
175,2.768949599994812,15,15.0,,,,,,,,3,True,0.5,acc,right,False,2,1,6,ret,1,10,1,"['2', '1', '4', '3', '1', '2']","[91.60559479999938, 91.85342709999532, 92.16244509999524, 93.76553350000177, 94.11854850000236, 94.37454439999419]",7,6,# # # # # #,None
176,0.0,16,16.0,,,,,,,,2,False,0.0,None,right,False,2,1,0,enc,0,0,0,[],[],7,6,4 4 4 2 4 2,4
177,1.9762738000135869,17,17.0,,,,,,,,2,True,0.5,acc,right,False,2,1,6,ret,1,10,0,"['2', '4', '2', '4', '4', '4']","[104.60843860000023, 104.99764410001808, 105.67856640001992, 106.01354390001507, 106.39163460000418, 106.58471240001381]",7,6,# # # # # #,None
178,0.0,18,18.0,,,,,,,,3,False,0.0,None,right,False,2,1,0,enc,0,0,0,[],[],7,6,3 1 4 4 2 4,6
179,3.5897306000115354,19,19.0,,,,,,,,3,True,0.5,acc,right,False,2,1,6,ret,1,10,0,"['4', '2', '4', '4', '1', '3']","[114.565826200007, 114.91556970000966, 115.23142039999948, 117.40872410000884, 117.75015740000526, 118.15555680001853]",7,6,# # # # # #,None
180,0.0,20,20.0,,,,,,,,3,False,0.0,None,right,False,2,1,0,enc,0,0,0,[],[],7,6,1 4 2 2 3 4,6
181,5.450706600007835,21,21.0,,,,,,,,3,True,0.5,acc,right,True,2,1,4,ret,1,4,0,"['4', '3', '2', '3', '2', '1']","[126.84172200001194, 127.08452299999772, 127.5504224000033, 131.78742690000217, 132.0755302000034, 132.29242860001978]",7,6,# # # # # #,None
182,0.0,22,22.0,,,,,,,,2,False,0.0,None,right,False,2,1,0,enc,0,0,1,[],[],7,6,1 1 2 1 1 3,4
183,4.0149336000031335,23,23.0,,,,,,,,2,True,0.5,acc,right,False,2,1,6,ret,1,10,1,"['1', '1', '2', '1', '1', '3']","[141.5345309000113, 141.7684751000197, 142.75165290001314, 143.01462150001316, 145.35562730001402, 145.54946450001444]",7,6,# # # # # #,None
0,0.0,0,,,,,,,,,2,False,0.0,None,right,False,2,1,0,enc,0,0,1,[],[],8,6,4 2 3 2 2 2,4
1,1.6489630999858491,1,,,,,,,,,2,True,0.5,acc,right,False,2,1,6,ret,1,10,1,"['4', '2', '3', '2', '2', '2']","[8.100550200004363, 8.631567100004759, 8.922618600015994, 9.227462300012121, 9.510361799999373, 9.749513299990213]",8,6,# # # # # #,None
2,0.0,2,,,,,,,,,2,False,0.0,None,right,False,2,1,0,enc,0,0,1,[],[],8,6,1 1 1 3 1 4,4
3,1.645042199990712,3,,,,,,,,,2,True,0.5,acc,right,False,2,1,6,ret,1,10,1,"['1', '1', '1', '3', '1', '4']","[18.3845113000134, 18.607403000001796, 18.907535600010306, 19.392513400001917, 19.70041280001169, 20.029553500004113]",8,6,# # # # # #,None
4,0.0,4,,,,,,,,,2,False,0.0,None,right,False,2,1,0,enc,0,0,0,[],[],8,6,2 1 2 1 3 4,4
5,2.8806528999994043,5,,,,,,,,,2,True,0.5,acc,right,False,2,1,6,ret,1,10,0,"['4', '3', '1', '2', '1', '2']","[29.996624799998244, 30.424670600012178, 32.23738500001491, 32.434673900017515, 32.70145419999608, 32.87727769999765]",8,6,# # # # # #,None
6,0.0,6,,,,,,,,,2,False,0.0,None,right,False,2,1,0,enc,0,0,1,[],[],8,6,1 3 1 4 2 3,4
7,1.8490850000234786,7,,,,,,,,,2,True,0.5,acc,right,False,2,1,6,ret,1,10,1,"['1', '3', '1', '4', '2', '3']","[41.752517599990824, 42.09834090000368, 42.40566839999519, 42.69039219999104, 43.375497000000905, 43.6016026000143]",8,6,# # # # # #,None
8,0.0,8,,,,,,,,,3,False,0.0,None,right,False,2,1,0,enc,0,0,1,[],[],8,6,1 4 3 3 2 2,6
9,1.8678667999920435,9,,,,,,,,,3,True,0.5,acc,right,False,2,1,6,ret,1,10,1,"['1', '4', '3', '3', '2', '2']","[52.09556800001883, 52.37050449999515, 52.75171430001501, 53.47837029999937, 53.72144369999296, 53.96343480001087]",8,6,# # # # # #,None
10,0.0,10,,,,,,,,,2,False,0.0,None,right,False,2,1,0,enc,0,0,0,[],[],8,6,4 3 3 4 4 1,4
11,5.607913900021231,11,,,,,,,,,2,True,0.5,acc,right,False,2,1,6,ret,1,10,0,"['1', '4', '4', '3', '3', '4']","[65.7816354999959, 65.99139340000693, 69.17604819999542, 69.55150659999344, 71.16354750000755, 71.38954940001713]",8,6,# # # # # #,None
12,0.0,12,,,,,,,,,2,False,0.0,None,right,False,2,1,0,enc,0,0,0,[],[],8,6,3 1 3 2 4 2,4
13,6.687137499975506,13,,,,,,,,,2,True,0.5,acc,right,True,2,1,5,ret,1,5,0,"['2', '4', '2', '3', '2', '3']","[82.74454420001712, 83.02235820001806, 85.18566190000274, 85.42749130001175, 89.19161629999871, 89.43168169999262]",8,6,# # # # # #,None
14,0.0,14,,,,,,,,,3,False,0.0,None,right,False,2,1,0,enc,0,0,1,[],[],8,6,1 3 2 3 3 3,6
15,1.5759624000056647,15,,,,,,,,,3,True,0.5,acc,right,True,2,1,4,ret,1,4,1,"['1', '3', '2', '2', '2', '3']","[96.38045510000666, 96.6062465000141, 96.87936540000373, 97.17031909999787, 97.4000605000183, 97.95641750001232]",8,6,# # # # # #,None
16,0.0,16,,,,,,,,,3,False,0.0,None,right,False,2,1,0,enc,0,0,1,[],[],8,6,4 2 4 4 2 4,6
17,1.9510172000154853,17,,,,,,,,,3,True,0.5,acc,right,False,2,1,6,ret,1,10,1,"['4', '2', '4', '4', '2', '4']","[105.03739869999117, 105.44848540000385, 105.74911900001462, 106.43744280000101, 106.76653880000231, 106.98841590000666]",8,6,# # # # # #,None
18,0.0,18,,,,,,,,,3,False,0.0,None,right,False,2,1,0,enc,0,0,0,[],[],8,6,1 2 2 3 1 1,6
19,2.818084700003965,19,,,,,,,,,3,True,0.5,acc,right,False,2,1,6,ret,1,10,0,"['1', '1', '3', '2', '2', '1']","[114.99544369999785, 115.2164546000131, 115.52146980000543, 117.43748520000372, 117.62727910000831, 117.81352840000181]",8,6,# # # # # #,None
20,0.0,20,,,,,,,,,3,False,0.0,None,right,False,2,1,0,enc,0,0,0,[],[],8,6,2 3 1 1 3 4,6
21,5.287900499999523,21,,,,,,,,,3,True,0.5,acc,right,True,2,1,5,ret,1,5,0,"['4', '3', '2', '1', '3', '2']","[129.9935240999912, 130.31343559999368, 130.6692854000139, 134.42937220001477, 134.71237749999273, 135.28142459999071]",8,6,# # # # # #,None
22,0.0,22,,,,,,,,,3,False,0.0,None,right,False,2,1,0,enc,0,0,0,[],[],8,6,4 3 2 2 1 3,6
23,10.451725499995518,23,,,,,,,,,3,True,0.5,acc,right,False,2,1,6,ret,1,10,0,"['3', '1', '2', '2', '3', '4']","[143.71342970000114, 149.78553680001642, 150.2823619999981, 152.76918329999899, 153.88135189999593, 154.16515519999666]",8,6,# # # # # #,None
