,Tn,MT,chunk,display_trial_feedback,feedback_dur,feedback_type,hand,is_error,item_dur,iti_dur,number_correct,phase,phase_type,points,recall_dir,response,response_time,run_number,seq_length,seq_str,trial_dur,P1,P2,P3,P4,P5,P6,IPI_0,IPI_1,IPI_2,IPI_3,IPI_4,IPI_5
0,0,0.0,3,False,0.0,None,right,False,2,1,0,enc,0,0,1,[],[],1,6,2 2 2 4 4 3,6,0.0,0.0,0.0,0.0,0.0,0.0,0,0.0,0.0,0.0,0.0,0.0
1,1,4.5520139,3,True,0.5,acc,right,False,2,1,6,ret,1,10,1,"['2', '2', '2', '4', '4', '3']","[7.077982099988731, 7.373946499981685, 7.654420899983961, 11.045988300000317, 11.278051999979652, 11.629996000003302]",1,6,# # # # # #,None,7.077982099988731,7.373946499981685,7.654420899983961,11.045988300000317,11.278051999979652,11.629996000003302,0.5779820999887306,0.295964399992954,0.2804744000022765,3.3915674000163563,0.23206369997933507,0.35194400002365
2,2,0.0,3,False,0.0,None,right,False,2,1,0,enc,0,0,1,[],[],1,6,1 3 1 3 1 2,6,0.0,0.0,0.0,0.0,0.0,0.0,0,0.0,0.0,0.0,0.0,0.0
3,3,3.2240328,3,True,0.5,acc,right,False,2,1,6,ret,1,10,1,"['1', '3', '1', '3', '1', '2']","[18.654032499995083, 19.87775970000075, 20.25389969997923, 21.55794440000318, 21.749849899992114, 21.878065299999435]",1,6,# # # # # #,None,18.654032499995083,19.87775970000075,20.25389969997923,21.55794440000318,21.749849899992114,21.878065299999435,0.5240364999917801,1.2237272000056691,0.37613999997847714,1.304044700023951,0.19190549998893403,0.12821540000732057
4,4,0.0,3,False,0.0,None,right,False,2,1,0,enc,0,0,0,[],[],1,6,4 1 4 3 4 3,6,0.0,0.0,0.0,0.0,0.0,0.0,0,0.0,0.0,0.0,0.0,0.0
5,5,1.0878168,3,True,0.5,acc,right,True,2,1,1,ret,1,1,0,"['1', '2', '1', '1', '1', '3']","[30.582147999986773, 30.710534199984977, 30.822369500005152, 31.093922800006112, 31.549978199996985, 31.66996480000671]",1,6,# # # # # #,None,30.582147999986773,30.710534199984977,30.822369500005152,31.093922800006112,31.549978199996985,31.66996480000671,2.204082699987339,0.12838619999820367,0.11183530002017505,0.27155330000096,0.4560553999908734,0.1199866000097245
6,6,0.0,2,False,0.0,None,right,False,2,1,0,enc,0,0,1,[],[],1,6,4 3 4 1 4 4,4,0.0,0.0,0.0,0.0,0.0,0.0,0,0.0,0.0,0.0,0.0,0.0
7,7,2.079932,2,True,0.5,acc,right,False,2,1,6,ret,1,10,1,"['4', '3', '4', '1', '4', '4']","[41.53394649998518, 42.10991939998348, 42.58197529998142, 42.92590959998779, 43.38986679998925, 43.613878499978455]",1,6,# # # # # #,None,41.53394649998518,42.10991939998348,42.58197529998142,42.92590959998779,43.38986679998925,43.613878499978455,3.363981699978467,0.5759728999983054,0.4720558999979403,0.34393430000636727,0.46395720000145957,0.22401169998920523
8,8,0.0,2,False,0.0,None,right,False,2,1,0,enc,0,0,0,[],[],1,6,4 1 3 3 1 4,4,0.0,0.0,0.0,0.0,0.0,0.0,0,0.0,0.0,0.0,0.0,0.0
9,9,5.4239892,2,True,0.5,acc,right,True,2,1,4,ret,1,4,0,"['4', '1', '3', '3', '4', '1']","[54.42991909998818, 55.23774660000345, 57.67774250000366, 57.91813209999236, 59.67787439998938, 59.85390829999233]",1,6,# # # # # #,None,54.42991909998818,55.23774660000345,57.67774250000366,57.91813209999236,59.67787439998938,59.85390829999233,4.316040600009728,0.8078275000152644,2.4399959000002127,0.24038959998870268,1.759742299997015,0.17603390000294894
10,10,0.0,2,False,0.0,None,right,False,2,1,0,enc,0,0,0,[],[],1,6,1 3 4 2 2 2,4,0.0,0.0,0.0,0.0,0.0,0.0,0,0.0,0.0,0.0,0.0,0.0
11,11,5.7999823,2,True,0.5,acc,right,True,2,1,2,ret,1,2,0,"['1', '2', '3', '1', '4', '1']","[68.33393839999917, 70.58189349999884, 72.54174819999025, 72.79790639999555, 73.84589969998342, 74.13392069999827]",1,6,# # # # # #,None,68.33393839999917,70.58189349999884,72.54174819999025,72.79790639999555,73.84589969998342,74.13392069999827,1.980030100006843,2.247955099999672,1.9598546999914106,0.2561582000053022,1.0479932999878656,0.28802100001485087
12,12,0.0,3,False,0.0,None,right,False,2,1,0,enc,0,0,0,[],[],1,6,4 1 1 1 4 3,6,0.0,0.0,0.0,0.0,0.0,0.0,0,0.0,0.0,0.0,0.0,0.0
13,13,5.7119769,3,True,0.5,acc,right,True,2,1,5,ret,1,5,0,"['3', '4', '1', '1', '1', '3']","[82.50203079998028, 83.88590449999901, 84.34997399998247, 87.03790939997998, 87.4699963000021, 88.21400769997854]",1,6,# # # # # #,None,82.50203079998028,83.88590449999901,84.34997399998247,87.03790939997998,87.4699963000021,88.21400769997854,1.8681100999820046,1.3838737000187393,0.46406949998345226,2.6879353999975137,0.4320869000221137,0.7440113999764435
14,14,0.0,2,False,0.0,None,right,False,2,1,0,enc,0,0,1,[],[],1,6,1 2 3 4 3 1,4,0.0,0.0,0.0,0.0,0.0,0.0,0,0.0,0.0,0.0,0.0,0.0
15,15,3.8959425,2,True,0.5,acc,right,False,2,1,6,ret,1,10,1,"['1', '2', '3', '4', '3', '1']","[97.32600299999467, 97.81392190000042, 98.82991939998465, 99.22191709998879, 100.92598749999888, 101.22194550000131]",1,6,# # # # # #,None,97.32600299999467,97.81392190000042,98.82991939998465,99.22191709998879,100.92598749999888,101.22194550000131,2.611995300016133,0.4879189000057522,1.0159974999842234,0.3919977000041399,1.704070400010096,0.2959580000024289
16,0,0.0,3,False,0.0,None,right,False,2,1,0,enc,0,0,1,[],[],1,6,4 2 2 1 1 2,6,0.0,0.0,0.0,0.0,0.0,0.0,0,0.0,0.0,0.0,0.0,0.0
17,1,2.9999695,3,True,0.5,acc,right,True,2,1,4,ret,1,4,1,"['4', '1', '1', '1', '1', '2']","[5.394970599998487, 5.91497059998801, 6.146978999982821, 7.9308928999817, 8.131005499977618, 8.394940099999076]",1,6,# # # # # #,None,5.394970599998487,5.91497059998801,6.146978999982821,7.9308928999817,8.131005499977618,8.394940099999076,NaN,0.5199999999895226,0.23200839999481104,1.783913899998879,0.20011259999591857,0.2639346000214573
18,2,0.0,3,False,0.0,None,right,False,2,1,0,enc,0,0,1,[],[],1,6,3 3 2 2 3 3,6,0.0,0.0,0.0,0.0,0.0,0.0,0,0.0,0.0,0.0,0.0,0.0
19,3,4.5200019,3,True,0.5,acc,right,False,2,1,6,ret,1,10,1,"['3', '3', '2', '2', '3', '3']","[16.338873999979114, 16.746980999974767, 17.155014999996638, 19.818845599977067, 20.594852699985495, 20.858875899983104]",1,6,# # # # # #,None,16.338873999979114,16.746980999974767,17.155014999996638,19.818845599977067,20.594852699985495,20.858875899983104,1.4439338999800384,0.4081069999956526,0.4080340000218712,2.663830599980429,0.7760071000084281,0.2640231999976095
20,4,0.0,2,False,0.0,None,right,False,2,1,0,enc,0,0,0,[],[],1,6,1 4 4 2 2 1,4,0.0,0.0,0.0,0.0,0.0,0.0,0,0.0,0.0,0.0,0.0,0.0
21,5,5.3679437,2,True,0.5,acc,right,False,2,1,6,ret,1,10,0,"['1', '2', '2', '4', '4', '1']","[33.922949300002074, 34.38691549998475, 36.98704779997934, 37.79496389999986, 39.11494379999931, 39.290892999997595]",1,6,# # # # # #,None,33.922949300002074,34.38691549998475,36.98704779997934,37.79496389999986,39.11494379999931,39.290892999997595,6.5640734000189696,0.4639661999826785,2.600132299994584,0.8079161000205204,1.3199798999994528,0.17594919999828562
22,6,0.0,3,False,0.0,None,right,False,2,1,0,enc,0,0,0,[],[],1,6,2 3 3 2 4 1,6,0.0,0.0,0.0,0.0,0.0,0.0,0,0.0,0.0,0.0,0.0,0.0
23,7,7.7840949,3,True,0.5,acc,right,False,2,1,6,ret,1,10,0,"['1', '4', '2', '3', '3', '2']","[47.322830899996916, 49.21091389999492, 50.010945999994874, 52.49088319999282, 52.91493529998115, 55.106925799977034]",1,6,# # # # # #,None,47.322830899996916,49.21091389999492,50.010945999994874,52.49088319999282,52.91493529998115,55.106925799977034,1.5319378999993205,1.888082999998005,0.8000320999999531,2.4799371999979485,0.42405209998833016,2.1919904999958817
24,8,0.0,2,False,0.0,None,right,False,2,1,0,enc,0,0,0,[],[],1,6,4 3 2 1 3 4,4,0.0,0.0,0.0,0.0,0.0,0.0,0,0.0,0.0,0.0,0.0,0.0
25,9,8.8487553,2,True,0.5,acc,right,False,2,1,6,ret,1,10,0,"['4', '3', '1', '2', '3', '4']","[65.61099089999334, 66.70692529997905, 71.09084979997715, 71.53890639997553, 74.25091489998158, 74.45974619998015]",1,6,# # # # # #,None,65.61099089999334,66.70692529997905,71.09084979997715,71.53890639997553,74.25091489998158,74.45974619998015,4.004065100016305,1.0959343999857083,4.383924499998102,0.448056599998381,2.71200850000605,0.20883129999856465
26,10,0.0,2,False,0.0,None,right,False,2,1,0,enc,0,0,1,[],[],1,6,4 3 3 1 1 2,4,0.0,0.0,0.0,0.0,0.0,0.0,0,0.0,0.0,0.0,0.0,0.0
27,11,3.6800021,2,True,0.5,acc,right,True,2,1,4,ret,1,4,1,"['4', '3', '2', '1', '1', '3']","[84.63491399999475, 84.8508773999929, 86.64292109999224, 86.74694889999228, 88.2188715999946, 88.31491609997465]",1,6,# # # # # #,None,84.63491399999475,84.8508773999929,86.64292109999224,86.74694889999228,88.2188715999946,88.31491609997465,3.6751678000146057,0.21596339999814518,1.7920436999993399,0.10402780000003986,1.4719227000023238,0.09604449998005293
28,12,0.0,3,False,0.0,None,right,False,2,1,0,enc,0,0,0,[],[],1,6,2 3 4 2 2 1,6,0.0,0.0,0.0,0.0,0.0,0.0,0,0.0,0.0,0.0,0.0,0.0
29,13,5.6721442,3,True,0.5,acc,right,False,2,1,6,ret,1,10,0,"['1', '2', '2', '4', '3', '2']","[96.3228694999998, 97.33092579999357, 97.5307746999897, 99.92288399999961, 101.84293539999635, 101.99501369998325]",1,6,# # # # # #,None,96.3228694999998,97.33092579999357,97.5307746999897,99.92288399999961,101.84293539999635,101.99501369998325,1.5079534000251442,1.0080562999937683,0.19984889999614097,2.3921093000099063,1.920051399996737,0.15207829998689704
30,14,0.0,2,False,0.0,None,right,False,2,1,0,enc,0,0,1,[],[],1,6,4 2 3 4 2 1,4,0.0,0.0,0.0,0.0,0.0,0.0,0,0.0,0.0,0.0,0.0,0.0
31,15,5.3836667,2,True,0.5,acc,right,False,2,1,6,ret,1,10,1,"['4', '2', '3', '4', '2', '1']","[113.05127060000086, 114.23493069998221, 115.95495759998448, 116.1233557999949, 118.36279889999423, 118.4349372999859]",1,6,# # # # # #,None,113.05127060000086,114.23493069998221,115.95495759998448,116.1233557999949,118.36279889999423,118.4349372999859,4.556256900017615,1.1836600999813527,1.7200269000022672,0.16839820001041517,2.2394430999993347,0.07213839999167249
32,16,0.0,2,False,0.0,None,right,False,2,1,0,enc,0,0,1,[],[],1,6,1 4 1 3 2 4,4,0.0,0.0,0.0,0.0,0.0,0.0,0,0.0,0.0,0.0,0.0,0.0
33,17,3.8804413,2,True,0.5,acc,right,True,2,1,4,ret,1,4,1,"['1', '3', '1', '3', '2', '5']","[127.14697010000236, 127.47511589998612, 128.79497029999038, 129.09895109999343, 130.83488079998642, 131.02741139999125]",1,6,# # # # # #,None,127.14697010000236,127.47511589998612,128.79497029999038,129.09895109999343,130.83488079998642,131.02741139999125,2.212032800016459,0.3281457999837585,1.3198544000042602,0.30398080000304617,1.7359296999929938,0.19253060000482947
34,18,0.0,3,False,0.0,None,right,False,2,1,0,enc,0,0,0,[],[],1,6,2 3 3 3 3 4,6,0.0,0.0,0.0,0.0,0.0,0.0,0,0.0,0.0,0.0,0.0,0.0
35,19,3.9202265,3,True,0.5,acc,right,False,2,1,6,ret,1,10,0,"['4', '3', '3', '3', '3', '2']","[138.2107537999982, 138.9469571999798, 139.1789780999825, 141.7389075999963, 141.93896469997708, 142.13098029998946]",1,6,# # # # # #,None,138.2107537999982,138.9469571999798,139.1789780999825,141.7389075999963,141.93896469997708,142.13098029998946,0.6833424000069499,0.7362033999816049,0.23202090000268072,2.5599295000138227,0.20005709998076782,0.1920156000123825
36,20,0.0,3,False,0.0,None,right,False,2,1,0,enc,0,0,1,[],[],1,6,1 1 3 2 2 4,6,0.0,0.0,0.0,0.0,0.0,0.0,0,0.0,0.0,0.0,0.0,0.0
37,21,1.8318773,3,True,0.5,acc,right,False,2,1,6,ret,1,10,1,"['1', '1', '3', '2', '2', '4']","[148.73891189999995, 148.95499879997806, 149.2109480999934, 150.20294219997595, 150.41089579998516, 150.57078919999185]",1,6,# # # # # #,None,148.73891189999995,148.95499879997806,149.2109480999934,150.20294219997595,150.41089579998516,150.57078919999185,0.10793160001048818,0.2160868999781087,0.2559493000153452,0.9919940999825485,0.20795360000920482,0.15989340000669472
38,22,0.0,2,False,0.0,None,right,False,2,1,0,enc,0,0,0,[],[],1,6,4 1 1 1 4 4,4,0.0,0.0,0.0,0.0,0.0,0.0,0,0.0,0.0,0.0,0.0,0.0
39,23,5.4478287,2,True,0.5,acc,right,False,2,1,6,ret,1,10,0,"['4', '4', '1', '1', '1', '4']","[159.29903480000212, 159.50694399999338, 161.84291409997968, 162.25889899997856, 164.45071839998127, 164.74686349998228]",1,6,# # # # # #,None,159.29903480000212,159.50694399999338,161.84291409997968,162.25889899997856,164.45071839998127,164.74686349998228,2.2282456000102684,0.20790919999126345,2.335970099986298,0.41598489999887533,2.1918194000027142,0.2961451000010129
40,0,0.0,3,False,0.0,None,right,False,2,1,0,enc,0,0,1,[],[],2,6,3 2 2 3 2 3,6,0.0,0.0,0.0,0.0,0.0,0.0,0,0.0,0.0,0.0,0.0,0.0
41,1,2.2320784,3,True,0.5,acc,right,False,2,1,6,ret,1,10,1,"['3', '2', '2', '3', '2', '3']","[5.67022079997696, 5.95031809998909, 6.1663815999927465, 7.566275599994697, 7.766360099980375, 7.9022991999809165]",2,6,# # # # # #,None,5.67022079997696,5.95031809998909,6.1663815999927465,7.566275599994697,7.766360099980375,7.9022991999809165,NaN,0.2800973000121303,0.21606350000365637,1.3998940000019502,0.20008449998567812,0.13593910000054166
42,2,0.0,2,False,0.0,None,right,False,2,1,0,enc,0,0,1,[],[],2,6,2 4 4 4 4 1,4,0.0,0.0,0.0,0.0,0.0,0.0,0,0.0,0.0,0.0,0.0,0.0
43,3,3.0801703,2,True,0.5,acc,right,False,2,1,6,ret,1,10,1,"['2', '4', '4', '4', '4', '1']","[17.446312899992336, 17.95822099997895, 19.174320499994792, 19.4222454999981, 20.350295499985805, 20.52648319999571]",2,6,# # # # # #,None,17.446312899992336,17.95822099997895,19.174320499994792,19.4222454999981,20.350295499985805,20.52648319999571,3.044013700011419,0.5119080999866128,1.2160995000158437,0.2479250000033062,0.9280499999877065,0.1761877000099048
44,4,0.0,3,False,0.0,None,right,False,2,1,0,enc,0,0,1,[],[],2,6,1 4 1 4 4 3,6,0.0,0.0,0.0,0.0,0.0,0.0,0,0.0,0.0,0.0,0.0,0.0
45,5,2.5439027,3,True,0.5,acc,right,False,2,1,6,ret,1,10,1,"['1', '4', '1', '4', '4', '3']","[27.694196500000544, 28.038254399987636, 28.310289899993222, 28.99033309999504, 29.24660079999012, 30.23809919998166]",2,6,# # # # # #,None,27.694196500000544,28.038254399987636,28.310289899993222,28.99033309999504,29.24660079999012,30.23809919998166,0.6677133000048343,0.34405789998709224,0.2720355000055861,0.6800432000018191,0.25626769999507815,0.9914983999915421
46,6,0.0,3,False,0.0,None,right,False,2,1,0,enc,0,0,0,[],[],2,6,1 3 1 3 1 3,6,0.0,0.0,0.0,0.0,0.0,0.0,0,0.0,0.0,0.0,0.0,0.0
47,7,3.3841611,3,True,0.5,acc,right,False,2,1,6,ret,1,10,0,"['3', '1', '3', '1', '3', '1']","[38.926292299991474, 39.51027429997339, 39.862389199988684, 41.52643269998953, 42.04624419999891, 42.31045339998673]",2,6,# # # # # #,None,38.926292299991474,39.51027429997339,39.862389199988684,41.52643269998953,42.04624419999891,42.31045339998673,2.188193100009812,0.5839819999819156,0.35211490001529455,1.6640435000008438,0.5198115000093821,0.26420919998781756
48,8,0.0,2,False,0.0,None,right,False,2,1,0,enc,0,0,0,[],[],2,6,2 1 4 4 4 2,4,0.0,0.0,0.0,0.0,0.0,0.0,0,0.0,0.0,0.0,0.0,0.0
49,9,5.8720281,2,True,0.5,acc,right,False,2,1,6,ret,1,10,0,"['2', '4', '4', '4', '1', '2']","[52.43833169998834, 53.31824090000009, 55.254262699978426, 55.542394699994475, 58.238718999986304, 58.310359800001606]",2,6,# # # # # #,None,52.43833169998834,53.31824090000009,55.254262699978426,55.542394699994475,58.238718999986304,58.310359800001606,3.627878300001612,0.8799092000117525,1.9360217999783345,0.28813200001604855,2.6963242999918293,0.07164080001530237
50,10,0.0,3,False,0.0,None,right,False,2,1,0,enc,0,0,0,[],[],2,6,3 3 4 1 2 3,6,0.0,0.0,0.0,0.0,0.0,0.0,0,0.0,0.0,0.0,0.0,0.0
51,11,3.4321993,3,True,0.5,acc,right,False,2,1,6,ret,1,10,0,"['3', '2', '1', '4', '3', '3']","[65.55815839997376, 65.70292589999735, 65.87050459999591, 68.11826179997297, 68.80644299997948, 68.99035769997863]",2,6,# # # # # #,None,65.55815839997376,65.70292589999735,65.87050459999591,68.11826179997297,68.80644299997948,68.99035769997863,0.7477985999721568,0.1447675000235904,0.16757869999855757,2.247757199977059,0.6881812000065111,0.1839146999991499
52,12,0.0,2,False,0.0,None,right,False,2,1,0,enc,0,0,0,[],[],2,6,4 2 2 2 3 1,4,0.0,0.0,0.0,0.0,0.0,0.0,0,0.0,0.0,0.0,0.0,0.0
53,13,4.5360072,2,True,0.5,acc,right,True,2,1,5,ret,1,5,0,"['1', '3', '2', '2', '4', '4']","[77.8702784999914, 79.03822019998915, 81.08624779997626, 81.3102456999768, 82.20624759999919, 82.4062856999808]",2,6,# # # # # #,None,77.8702784999914,79.03822019998915,81.08624779997626,81.3102456999768,82.20624759999919,82.4062856999808,2.379920800012769,1.1679416999977548,2.0480275999871083,0.22399790000054054,0.8960019000223838,0.2000380999816116
54,14,0.0,3,False,0.0,None,right,False,2,1,0,enc,0,0,1,[],[],2,6,3 2 2 1 1 4,6,0.0,0.0,0.0,0.0,0.0,0.0,0,0.0,0.0,0.0,0.0,0.0
55,15,1.3680632,3,True,0.5,acc,right,False,2,1,6,ret,1,10,1,"['3', '2', '2', '1', '1', '4']","[89.4861839999794, 89.7183468999865, 89.91021969998837, 90.23027169998386, 90.43827469999087, 90.85424719998264]",2,6,# # # # # #,None,89.4861839999794,89.7183468999865,89.91021969998837,90.23027169998386,90.43827469999087,90.85424719998264,0.5798982999986038,0.23216290000709705,0.19187280000187457,0.32005199999548495,0.208003000007011,0.4159724999917671
56,16,0.0,2,False,0.0,None,right,False,2,1,0,enc,0,0,0,[],[],2,6,4 3 2 1 2 2,4,0.0,0.0,0.0,0.0,0.0,0.0,0,0.0,0.0,0.0,0.0,0.0
57,17,5.8638923,2,True,0.5,acc,right,False,2,1,6,ret,1,10,0,"['2', '2', '1', '2', '3', '4']","[100.02234319999116, 100.2307962999912, 102.35827679999056, 103.03824589998112, 105.79831549999653, 105.88623549998738]",2,6,# # # # # #,None,100.02234319999116,100.2307962999912,102.35827679999056,103.03824589998112,105.79831549999653,105.88623549998738,2.668096000008518,0.20845310000004247,2.127480499999365,0.6799690999905579,2.760069600015413,0.0879199999908451
58,18,0.0,2,False,0.0,None,right,False,2,1,0,enc,0,0,1,[],[],2,6,3 1 4 4 2 3,4,0.0,0.0,0.0,0.0,0.0,0.0,0,0.0,0.0,0.0,0.0,0.0
59,19,2.6000939,2,True,0.5,acc,right,False,2,1,6,ret,1,10,1,"['3', '1', '4', '4', '2', '3']","[114.84610969998175, 114.99870450000162, 116.21431789998314, 116.42233879998093, 117.39831399999093, 117.44620359997498]",2,6,# # # # # #,None,114.84610969998175,114.99870450000162,116.21431789998314,116.42233879998093,117.39831399999093,117.44620359997498,2.459874199994374,0.15259480001986958,1.215613399981521,0.20802089999779128,0.9759752000099979,0.04788959998404607
60,20,0.0,3,False,0.0,None,right,False,2,1,0,enc,0,0,0,[],[],2,6,1 1 4 4 3 2,6,0.0,0.0,0.0,0.0,0.0,0.0,0,0.0,0.0,0.0,0.0,0.0
61,21,3.4559031,3,True,0.5,acc,right,True,2,1,5,ret,1,5,0,"['2', '3', '4', '4', '4', '1']","[125.49436139999307, 126.11021859999164, 126.51835329999449, 128.51028209997457, 128.75025599999935, 128.9502644999884]",2,6,# # # # # #,None,125.49436139999307,126.11021859999164,126.51835329999449,128.51028209997457,128.75025599999935,128.9502644999884,1.548157800018089,0.6158571999985725,0.40813470000284724,1.9919287999800872,0.23997390002477914,0.20000849998905323
62,22,0.0,2,False,0.0,None,right,False,2,1,0,enc,0,0,1,[],[],2,6,4 2 1 2 4 1,4,0.0,0.0,0.0,0.0,0.0,0.0,0,0.0,0.0,0.0,0.0,0.0
63,23,2.6400007,2,True,0.5,acc,right,False,2,1,6,ret,1,10,1,"['4', '2', '1', '2', '4', '1']","[137.7982591999753, 138.52635379999992, 139.35822579998057, 139.44614149999688, 140.31824909997522, 140.4382598999946]",2,6,# # # # # #,None,137.7982591999753,138.52635379999992,139.35822579998057,139.44614149999688,140.31824909997522,140.4382598999946,2.3479946999868844,0.7280946000246331,0.831871999980649,0.08791570001631044,0.8721075999783352,0.12001080001937225
64,0,0.0,2,False,0.0,None,right,False,2,1,0,enc,0,0,1,[],[],3,6,1 3 3 1 2 3,4,0.0,0.0,0.0,0.0,0.0,0.0,0,0.0,0.0,0.0,0.0,0.0
65,1,1.8959274,2,True,0.5,acc,right,False,2,1,6,ret,1,10,1,"['1', '3', '3', '1', '2', '3']","[6.901481899985811, 7.173465200001374, 7.965396599989617, 8.085459599999012, 8.725440100010019, 8.797409299993888]",3,6,# # # # # #,None,6.901481899985811,7.173465200001374,7.965396599989617,8.085459599999012,8.725440100010019,8.797409299993888,NaN,0.27198330001556315,0.7919313999882434,0.12006300000939518,0.6399805000110064,0.07196919998386875
66,2,0.0,3,False,0.0,None,right,False,2,1,0,enc,0,0,0,[],[],3,6,2 3 1 2 2 1,6,0.0,0.0,0.0,0.0,0.0,0.0,0,0.0,0.0,0.0,0.0,0.0
67,3,6.7763328,3,True,0.5,acc,right,True,2,1,2,ret,1,2,0,"['1', '3', '2', '3', '2', '1']","[16.56538129999535, 18.181434800004354, 19.237442699988605, 22.701307100011036, 23.181458799983375, 23.341714100009995]",3,6,# # # # # #,None,16.56538129999535,18.181434800004354,19.237442699988605,22.701307100011036,23.181458799983375,23.341714100009995,1.267972000001464,1.6160535000090022,1.0560078999842517,3.4638644000224303,0.480151699972339,0.1602553000266198
68,4,0.0,3,False,0.0,None,right,False,2,1,0,enc,0,0,1,[],[],3,6,4 1 3 2 2 1,6,0.0,0.0,0.0,0.0,0.0,0.0,0,0.0,0.0,0.0,0.0,0.0
69,5,1.3120108,3,True,0.5,acc,right,False,2,1,6,ret,1,10,1,"['4', '1', '3', '2', '2', '1']","[30.4295376999944, 30.845549299992854, 31.061475900001824, 31.493518200004473, 31.66147120000096, 31.74154849999468]",3,6,# # # # # #,None,30.4295376999944,30.845549299992854,31.061475900001824,31.493518200004473,31.66147120000096,31.74154849999468,0.5878235999844037,0.4160115999984555,0.21592660000897013,0.4320423000026494,0.16795299999648705,0.08007729999371804
70,6,0.0,2,False,0.0,None,right,False,2,1,0,enc,0,0,0,[],[],3,6,3 4 4 3 4 1,4,0.0,0.0,0.0,0.0,0.0,0.0,0,0.0,0.0,0.0,0.0,0.0
71,7,4.9519134,2,True,0.5,acc,right,True,2,1,4,ret,1,4,0,"['1', '4', '4', '3', '4', '3']","[41.0535058999958, 41.949376200005645, 43.74951960000908, 43.86145570001099, 45.93344560000696, 46.00541929999599]",3,6,# # # # # #,None,41.0535058999958,41.949376200005645,43.74951960000908,43.86145570001099,45.93344560000696,46.00541929999599,2.81195740000112,0.8958703000098467,1.800143400003435,0.11193610000191256,2.0719898999959696,0.07197369998903014
72,8,0.0,3,False,0.0,None,right,False,2,1,0,enc,0,0,1,[],[],3,6,1 2 2 4 4 3,6,0.0,0.0,0.0,0.0,0.0,0.0,0,0.0,0.0,0.0,0.0,0.0
73,9,2.7600837,3,True,0.5,acc,right,True,2,1,5,ret,1,5,1,"['1', '1', '2', '4', '4', '3']","[52.83732459999737, 53.0214760999952, 53.173533499997575, 55.269453199987765, 55.44542380000348, 55.597408300003735]",3,6,# # # # # #,None,52.83732459999737,53.0214760999952,53.173533499997575,55.269453199987765,55.44542380000348,55.597408300003735,0.33190530000138097,0.18415149999782443,0.1520574000023771,2.0959196999901906,0.17597060001571663,0.15198450000025332
74,10,0.0,2,False,0.0,None,right,False,2,1,0,enc,0,0,0,[],[],3,6,4 4 3 2 3 3,4,0.0,0.0,0.0,0.0,0.0,0.0,0,0.0,0.0,0.0,0.0,0.0
75,11,5.2879086,2,True,0.5,acc,right,True,2,1,4,ret,1,4,0,"['3', '3', '2', '2', '4', '3']","[65.46949170000153, 65.66141309999512, 68.10941360000288, 68.30143779999344, 70.67751899998984, 70.75740030000452]",3,6,# # # # # #,None,65.46949170000153,65.66141309999512,68.10941360000288,68.30143779999344,70.67751899998984,70.75740030000452,3.3720833999977913,0.19192139999358915,2.4480005000077654,0.19202419999055564,2.376081199996406,0.07988130001467653
76,12,0.0,3,False,0.0,None,right,False,2,1,0,enc,0,0,0,[],[],3,6,2 4 3 2 2 4,6,0.0,0.0,0.0,0.0,0.0,0.0,0,0.0,0.0,0.0,0.0,0.0
77,13,5.2639864,3,True,0.5,acc,right,False,2,1,6,ret,1,10,0,"['4', '2', '2', '3', '4', '2']","[78.49350889999187, 78.80570850000367, 78.99746700000833, 81.38950489999843, 82.67745399998967, 83.7574953000003]",3,6,# # # # # #,None,78.49350889999187,78.80570850000367,78.99746700000833,81.38950489999843,82.67745399998967,83.7574953000003,1.2361085999873467,0.3121996000118088,0.1917585000046529,2.3920378999901004,1.2879490999912377,1.0800413000106346
78,14,0.0,2,False,0.0,None,right,False,2,1,0,enc,0,0,0,[],[],3,6,2 3 4 4 1 2,4,0.0,0.0,0.0,0.0,0.0,0.0,0,0.0,0.0,0.0,0.0,0.0
79,15,3.4079142,2,True,0.5,acc,right,False,2,1,6,ret,1,10,0,"['2', '1', '4', '4', '3', '2']","[92.65354040000238, 92.75752929999726, 94.19745919998968, 94.38933070001076, 96.01340170000913, 96.06145459998515]",3,6,# # # # # #,None,92.65354040000238,92.75752929999726,94.19745919998968,94.38933070001076,96.01340170000913,96.06145459998515,2.396045100002084,0.10398889999487437,1.4399298999924213,0.19187150002107956,1.6240709999983665,0.04805289997602813
80,16,0.0,3,False,0.0,None,right,False,2,1,0,enc,0,0,1,[],[],3,6,2 1 1 2 4 1,6,0.0,0.0,0.0,0.0,0.0,0.0,0,0.0,0.0,0.0,0.0,0.0
81,17,1.8965314,3,True,0.5,acc,right,False,2,1,6,ret,1,10,1,"['2', '1', '1', '2', '4', '1']","[102.96555100000114, 103.18945919998805, 103.36544389999472, 104.08551750000333, 104.72550719999708, 104.86208240000997]",3,6,# # # # # #,None,102.96555100000114,103.18945919998805,103.36544389999472,104.08551750000333,104.72550719999708,104.86208240000997,0.40409640001598746,0.22390819998690858,0.17598470000666566,0.7200736000086181,0.6399896999937482,0.13657520001288503
82,18,0.0,3,False,0.0,None,right,False,2,1,0,enc,0,0,0,[],[],3,6,3 2 1 1 3 2,6,0.0,0.0,0.0,0.0,0.0,0.0,0,0.0,0.0,0.0,0.0,0.0
83,19,6.663855,3,True,0.5,acc,right,True,2,1,4,ret,1,4,0,"['2', '3', '1', '1', '3', '2']","[112.4695522999973, 113.34174840000924, 113.52537879999727, 116.8774553000112, 119.0133746000065, 119.1334072999889]",3,6,# # # # # #,None,112.4695522999973,113.34174840000924,113.52537879999727,116.8774553000112,119.0133746000065,119.1334072999889,1.1074698999873362,0.8721961000119336,0.18363039998803288,3.3520765000139363,2.135919299995294,0.12003269998240285
84,20,0.0,2,False,0.0,None,right,False,2,1,0,enc,0,0,1,[],[],3,6,1 4 1 4 2 1,4,0.0,0.0,0.0,0.0,0.0,0.0,0,0.0,0.0,0.0,0.0,0.0
85,21,1.3840661,2,True,0.5,acc,right,False,2,1,6,ret,1,10,1,"['1', '4', '1', '4', '2', '1']","[127.71751190000214, 127.99745500000427, 128.2855683999951, 128.46144159999676, 129.00536449998617, 129.1015780000016]",3,6,# # # # # #,None,127.71751190000214,127.99745500000427,128.2855683999951,128.46144159999676,129.00536449998617,129.1015780000016,2.0841046000132337,0.27994310000212863,0.2881133999908343,0.17587320000166073,0.5439228999894112,0.0962135000154376
86,22,0.0,2,False,0.0,None,right,False,2,1,0,enc,0,0,1,[],[],3,6,1 3 2 1 1 3,4,0.0,0.0,0.0,0.0,0.0,0.0,0,0.0,0.0,0.0,0.0,0.0
87,23,1.2239611,2,True,0.5,acc,right,False,2,1,6,ret,1,10,1,"['1', '3', '2', '1', '1', '3']","[137.69346320000477, 137.94148209999548, 138.36542379998718, 138.48549379999167, 138.8214372000075, 138.91742429998703]",3,6,# # # # # #,None,137.69346320000477,137.94148209999548,138.36542379998718,138.48549379999167,138.8214372000075,138.91742429998703,2.091885200003162,0.24801889999071136,0.42394169999170117,0.12007000000448897,0.3359434000158217,0.09598709997953847
88,0,0.0,2,False,0.0,None,right,False,2,1,0,enc,0,0,1,[],[],4,6,4 4 1 3 2 2,4,0.0,0.0,0.0,0.0,0.0,0.0,0,0.0,0.0,0.0,0.0,0.0
89,1,2.0639794,2,True,0.5,acc,right,False,2,1,6,ret,1,10,1,"['4', '4', '1', '3', '2', '2']","[7.164542599988636, 7.396504400006961, 7.756533400010085, 7.908604399999604, 9.02852009999333, 9.228521999990335]",4,6,# # # # # #,None,7.164542599988636,7.396504400006961,7.756533400010085,7.908604399999604,9.02852009999333,9.228521999990335,NaN,0.23196180001832545,0.36002900000312366,0.1520709999895189,1.1199156999937259,0.20000189999700524
90,2,0.0,2,False,0.0,None,right,False,2,1,0,enc,0,0,0,[],[],4,6,3 2 1 3 4 3,4,0.0,0.0,0.0,0.0,0.0,0.0,0,0.0,0.0,0.0,0.0,0.0
91,3,5.8960581,2,True,0.5,acc,right,False,2,1,6,ret,1,10,0,"['3', '4', '3', '1', '2', '3']","[19.140486999996938, 19.34864579999703, 23.364583499991568, 23.469044600002235, 24.98854590000701, 25.0365451000107]",4,6,# # # # # #,None,19.140486999996938,19.34864579999703,23.364583499991568,23.469044600002235,24.98854590000701,25.0365451000107,3.411965000006603,0.20815880000009201,4.015937699994538,0.104461100010667,1.5195013000047766,0.04799920000368729
92,4,0.0,3,False,0.0,None,right,False,2,1,0,enc,0,0,0,[],[],4,6,2 3 2 3 1 2,6,0.0,0.0,0.0,0.0,0.0,0.0,0,0.0,0.0,0.0,0.0,0.0
93,5,3.8155353,3,True,0.5,acc,right,False,2,1,6,ret,1,10,0,"['2', '1', '3', '2', '3', '2']","[33.37307880001026, 33.49236510001356, 33.68449869999313, 36.80456580000464, 37.01238850000664, 37.18861410001409]",4,6,# # # # # #,None,33.37307880001026,33.49236510001356,33.68449869999313,36.80456580000464,37.01238850000664,37.18861410001409,1.8365336999995634,0.11928630000329576,0.19213359997957014,3.1200671000115108,0.20782270000199787,0.1762256000074558
94,6,0.0,3,False,0.0,None,right,False,2,1,0,enc,0,0,1,[],[],4,6,4 4 4 2 2 1,6,0.0,0.0,0.0,0.0,0.0,0.0,0,0.0,0.0,0.0,0.0,0.0
95,7,1.5519433,3,True,0.5,acc,right,False,2,1,6,ret,1,10,1,"['4', '4', '4', '2', '2', '1']","[43.652554500004044, 43.86063800001284, 44.06054810000933, 44.92456129999482, 45.10051729998668, 45.2044978000049]",4,6,# # # # # #,None,43.652554500004044,43.86063800001284,44.06054810000933,44.92456129999482,45.10051729998668,45.2044978000049,-0.0360596000100486,0.20808350000879727,0.19991009999648668,0.864013199985493,0.17595599999185652,0.10398050001822412
96,8,0.0,2,False,0.0,None,right,False,2,1,0,enc,0,0,1,[],[],4,6,3 1 4 3 4 1,4,0.0,0.0,0.0,0.0,0.0,0.0,0,0.0,0.0,0.0,0.0,0.0
97,9,5.0319367,2,True,0.5,acc,right,False,2,1,6,ret,1,10,1,"['3', '1', '4', '3', '4', '1']","[54.132579299999634, 54.260516899987124, 56.64455779999844, 56.68455740000354, 59.08462650000001, 59.16451599998982]",4,6,# # # # # #,None,54.132579299999634,54.260516899987124,56.64455779999844,56.68455740000354,59.08462650000001,59.16451599998982,2.4280814999947324,0.1279375999874901,2.384040900011314,0.039999600005103275,2.4000690999964718,0.07988949998980388
98,10,0.0,3,False,0.0,None,right,False,2,1,0,enc,0,0,1,[],[],4,6,3 1 4 2 4 3,6,0.0,0.0,0.0,0.0,0.0,0.0,0,0.0,0.0,0.0,0.0,0.0
99,11,1.7598954,3,True,0.5,acc,right,False,2,1,6,ret,1,10,1,"['3', '1', '4', '2', '4', '3']","[66.16453750000801, 66.27659950000816, 66.49254800000926, 67.18066770001315, 67.38845269999001, 67.92443290000665]",4,6,# # # # # #,None,66.16453750000801,66.27659950000816,66.49254800000926,67.18066770001315,67.38845269999001,67.92443290000665,0.5000215000181925,0.11206200000015087,0.21594850000110455,0.688119700003881,0.20778499997686595,0.5359802000166383
100,12,0.0,2,False,0.0,None,right,False,2,1,0,enc,0,0,0,[],[],4,6,2 1 4 1 4 4,4,0.0,0.0,0.0,0.0,0.0,0.0,0,0.0,0.0,0.0,0.0,0.0
101,13,7.4561835,2,True,0.5,acc,right,True,2,1,5,ret,1,5,0,"['4', '4', '1', '4', '1', '3']","[76.36457090001204, 76.56459659998654, 80.07657219999237, 80.41251819999889, 83.54851829999825, 83.8207543999888]",4,6,# # # # # #,None,76.36457090001204,76.56459659998654,80.07657219999237,80.41251819999889,83.54851829999825,83.8207543999888,1.9401380000053905,0.20002569997450337,3.511975600005826,0.33594600000651553,3.1360000999993645,0.27223609999055043
102,14,0.0,3,False,0.0,None,right,False,2,1,0,enc,0,0,0,[],[],4,6,4 4 4 2 2 3,6,0.0,0.0,0.0,0.0,0.0,0.0,0,0.0,0.0,0.0,0.0,0.0
103,15,1.5361381,3,True,0.5,acc,right,False,2,1,6,ret,1,10,0,"['3', '2', '2', '4', '4', '4']","[91.6044172999973, 91.9325347999984, 92.11651059999713, 92.78850059999968, 92.98054670001147, 93.1405553999939]",4,6,# # # # # #,None,91.6044172999973,91.9325347999984,92.11651059999713,92.78850059999968,92.98054670001147,93.1405553999939,1.283662900008494,0.32811750000109896,0.18397579999873415,0.6719900000025518,0.1920461000117939,0.16000869998242706
104,16,0.0,2,False,0.0,None,right,False,2,1,0,enc,0,0,1,[],[],4,6,4 2 3 2 4 3,4,0.0,0.0,0.0,0.0,0.0,0.0,0,0.0,0.0,0.0,0.0,0.0
105,17,3.7365749,2,True,0.5,acc,right,True,2,1,5,ret,1,5,1,"['4', '2', '3', '2', '3', '3']","[103.4765519000066, 103.7245200999896, 105.2125134000089, 105.30046229998698, 106.42054869999993, 107.21312679999392]",4,6,# # # # # #,None,103.4765519000066,103.7245200999896,105.2125134000089,105.30046229998698,106.42054869999993,107.21312679999392,3.8359965000126977,0.24796819998300634,1.4879933000192977,0.08794889997807331,1.1200864000129513,0.7925780999939889
106,18,0.0,2,False,0.0,None,right,False,2,1,0,enc,0,0,0,[],[],4,6,4 4 2 3 3 4,4,0.0,0.0,0.0,0.0,0.0,0.0,0,0.0,0.0,0.0,0.0,0.0
107,19,5.0722774,2,True,0.5,acc,right,True,2,1,3,ret,1,3,0,"['4', '3', '4', '4', '4', '3']","[116.94838640000671, 117.20451320000575, 118.94055259999004, 119.1725940000033, 121.78052279999247, 122.02066380000906]",4,6,# # # # # #,None,116.94838640000671,117.20451320000575,118.94055259999004,119.1725940000033,121.78052279999247,122.02066380000906,3.235259600012796,0.25612679999903776,1.7360393999842927,0.23204140001325868,2.6079287999891676,0.24014100001659244
108,20,0.0,3,False,0.0,None,right,False,2,1,0,enc,0,0,1,[],[],4,6,3 3 3 1 1 2,6,0.0,0.0,0.0,0.0,0.0,0.0,0,0.0,0.0,0.0,0.0,0.0
109,21,0.99208,3,True,0.5,acc,right,False,2,1,6,ret,1,10,1,"['3', '3', '3', '1', '1', '2']","[128.86054739999236, 129.0764965999988, 129.26848739999696, 129.57289889999083, 129.75650990000577, 129.8526273999887]",4,6,# # # # # #,None,128.86054739999236,129.0764965999988,129.26848739999696,129.57289889999083,129.75650990000577,129.8526273999887,0.3398835999832954,0.2159492000064347,0.19199079999816604,0.3044114999938756,0.1836110000149347,0.09611749998293817
110,22,0.0,3,False,0.0,None,right,False,2,1,0,enc,0,0,0,[],[],4,6,1 4 3 2 2 1,6,0.0,0.0,0.0,0.0,0.0,0.0,0,0.0,0.0,0.0,0.0,0.0
111,23,3.663966,3,True,0.5,acc,right,False,2,1,6,ret,1,10,0,"['1', '2', '2', '3', '4', '1']","[137.52458940001088, 137.76446690000012, 137.9325373999891, 140.6205406000081, 140.8284990999964, 141.18855540000368]",4,6,# # # # # #,None,137.52458940001088,137.76446690000012,137.9325373999891,140.6205406000081,140.8284990999964,141.18855540000368,1.1719620000221767,0.2398774999892339,0.16807049998897128,2.6880032000190113,0.20795849998830818,0.3600563000072725
112,0,0.0,3,False,0.0,None,right,False,2,1,0,enc,0,0,1,[],[],5,6,4 3 1 1 1 1,6,0.0,0.0,0.0,0.0,0.0,0.0,0,0.0,0.0,0.0,0.0,0.0
113,1,1.0638174,3,True,0.5,acc,right,False,2,1,6,ret,1,10,1,"['4', '3', '1', '1', '1', '1']","[5.251908400008688, 5.523920300009195, 5.707804500008933, 6.019744899997022, 6.171676800004207, 6.3157257999992]",5,6,# # # # # #,None,5.251908400008688,5.523920300009195,5.707804500008933,6.019744899997022,6.171676800004207,6.3157257999992,NaN,0.272011900000507,0.18388419999973848,0.31194039998808876,0.1519319000071846,0.1440489999949932
114,2,0.0,3,False,0.0,None,right,False,2,1,0,enc,0,0,1,[],[],5,6,2 4 2 3 2 4,6,0.0,0.0,0.0,0.0,0.0,0.0,0,0.0,0.0,0.0,0.0,0.0
115,3,2.4800773,3,True,0.5,acc,right,True,2,1,4,ret,1,4,1,"['2', '4', '2', '3', '4', '2']","[13.651749000011478, 13.92392280002241, 14.363888599997154, 15.627860800013877, 15.84381449999637, 16.131826299999375]",5,6,# # # # # #,None,13.651749000011478,13.92392280002241,14.363888599997154,15.627860800013877,15.84381449999637,16.131826299999375,0.8360232000122778,0.2721738000109326,0.4399657999747433,1.263972200016724,0.21595369998249225,0.2880118000030052
116,4,0.0,2,False,0.0,None,right,False,2,1,0,enc,0,0,1,[],[],5,6,4 3 3 2 2 2,4,0.0,0.0,0.0,0.0,0.0,0.0,0,0.0,0.0,0.0,0.0,0.0
117,5,2.5760085,2,True,0.5,acc,right,False,2,1,6,ret,1,10,1,"['4', '3', '3', '2', '2', '2']","[25.371845000016037, 25.635876400017878, 26.995891700003995, 27.227797100000316, 27.763843499997165, 27.947853500023484]",5,6,# # # # # #,None,25.371845000016037,25.635876400017878,26.995891700003995,27.227797100000316,27.763843499997165,27.947853500023484,2.7400187000166625,0.26403140000184067,1.3600152999861166,0.23190539999632165,0.5360463999968488,0.18401000002631918
118,6,0.0,2,False,0.0,None,right,False,2,1,0,enc,0,0,1,[],[],5,6,2 3 1 3 2 3,4,0.0,0.0,0.0,0.0,0.0,0.0,0,0.0,0.0,0.0,0.0,0.0
119,7,0.8640742,2,True,0.5,acc,right,False,2,1,6,ret,1,10,1,"['2', '3', '1', '3', '2', '3']","[36.531883100018604, 36.57187620000332, 36.867813300021226, 36.95572660001926, 37.331905600003665, 37.39595730000292]",5,6,# # # # # #,None,36.531883100018604,36.57187620000332,36.867813300021226,36.95572660001926,37.331905600003665,37.39595730000292,2.0840295999951195,0.0399930999847129,0.29593710001790896,0.08791329999803565,0.37617899998440407,0.0640516999992542
120,8,0.0,2,False,0.0,None,right,False,2,1,0,enc,0,0,0,[],[],5,6,3 2 3 1 3 4,4,0.0,0.0,0.0,0.0,0.0,0.0,0,0.0,0.0,0.0,0.0,0.0
121,9,4.0400433,2,True,0.5,acc,right,False,2,1,6,ret,1,10,0,"['4', '3', '1', '3', '2', '3']","[47.18769420002354, 47.41183810000075, 49.403854000003776, 49.55565870000282, 51.15586810000241, 51.227737500012154]",5,6,# # # # # #,None,47.18769420002354,47.41183810000075,49.403854000003776,49.55565870000282,51.15586810000241,51.227737500012154,3.2917369000206236,0.22414389997720718,1.9920159000030253,0.15180469999904744,1.600209399999585,0.07186940000974573
122,10,0.0,3,False,0.0,None,right,False,2,1,0,enc,0,0,0,[],[],5,6,1 3 1 4 1 1,6,0.0,0.0,0.0,0.0,0.0,0.0,0,0.0,0.0,0.0,0.0,0.0
123,11,4.4723301,3,True,0.5,acc,right,False,2,1,6,ret,1,10,0,"['1', '1', '4', '1', '3', '1']","[58.291928200022085, 58.93182019999949, 60.65173820001655, 62.55584740001359, 62.65182640001876, 62.76425830001244]",5,6,# # # # # #,None,58.291928200022085,58.93182019999949,60.65173820001655,62.55584740001359,62.65182640001876,62.76425830001244,0.5641907000099309,0.639891999977408,1.71991800001706,1.9041091999970376,0.09597900000517257,0.11243189999368042
124,12,0.0,3,False,0.0,None,right,False,2,1,0,enc,0,0,0,[],[],5,6,3 3 4 4 1 1,6,0.0,0.0,0.0,0.0,0.0,0.0,0,0.0,0.0,0.0,0.0,0.0
125,13,4.1362204,3,True,0.5,acc,right,True,2,1,4,ret,1,4,0,"['1', '1', '4', '1', '1', '3']","[69.57969790001516, 70.12393530001282, 70.82781340001384, 72.64382379999734, 72.83578370002215, 73.71591830000398]",5,6,# # # # # #,None,69.57969790001516,70.12393530001282,70.82781340001384,72.64382379999734,72.83578370002215,73.71591830000398,0.3154396000027191,0.5442373999976553,0.7038781000010204,1.8160103999834973,0.19195990002481267,0.8801345999818295
126,14,0.0,2,False,0.0,None,right,False,2,1,0,enc,0,0,0,[],[],5,6,1 4 1 2 4 4,4,0.0,0.0,0.0,0.0,0.0,0.0,0,0.0,0.0,0.0,0.0,0.0
127,15,3.1919754,2,True,0.5,acc,right,True,2,1,5,ret,1,5,0,"['4', '4', '2', '1', '3', '1']","[82.43584990000818, 82.61183790001087, 84.49968259999878, 84.57166940000025, 85.58031620000838, 85.6278253000055]",5,6,# # # # # #,None,82.43584990000818,82.61183790001087,84.49968259999878,84.57166940000025,85.58031620000838,85.6278253000055,2.2199316000042018,0.17598800000268966,1.8878446999879088,0.07198680000146851,1.0086468000081368,0.04750909999711439
128,16,0.0,2,False,0.0,None,right,False,2,1,0,enc,0,0,1,[],[],5,6,1 2 2 1 4 2,4,0.0,0.0,0.0,0.0,0.0,0.0,0,0.0,0.0,0.0,0.0,0.0
129,17,1.8799407,2,True,0.5,acc,right,False,2,1,6,ret,1,10,1,"['1', '2', '2', '1', '4', '2']","[94.7078747000196, 94.92367479999666, 95.26784929999849, 95.34780250000767, 96.45185370001127, 96.58781540000928]",5,6,# # # # # #,None,94.7078747000196,94.92367479999666,95.26784929999849,95.34780250000767,96.45185370001127,96.58781540000928,2.5800494000141043,0.2158000999770593,0.34417450000182725,0.07995320000918582,1.104051200003596,0.13596169999800622
130,18,0.0,3,False,0.0,None,right,False,2,1,0,enc,0,0,1,[],[],5,6,2 2 1 3 1 3,6,0.0,0.0,0.0,0.0,0.0,0.0,0,0.0,0.0,0.0,0.0,0.0
131,19,1.4959168,3,True,0.5,acc,right,False,2,1,6,ret,1,10,1,"['2', '2', '1', '3', '1', '3']","[103.58780900001875, 103.7799675000133, 103.91575909999665, 104.80385600001318, 104.96382090001134, 105.08372580001014]",5,6,# # # # # #,None,103.58780900001875,103.7799675000133,103.91575909999665,104.80385600001318,104.96382090001134,105.08372580001014,0.4999936000094749,0.19215849999454804,0.13579159998334944,0.8880969000165351,0.15996489999815822,0.11990489999880083
132,20,0.0,2,False,0.0,None,right,False,2,1,0,enc,0,0,0,[],[],5,6,3 4 2 3 1 4,4,0.0,0.0,0.0,0.0,0.0,0.0,0,0.0,0.0,0.0,0.0,0.0
133,21,7.455904,2,True,0.5,acc,right,True,2,1,4,ret,1,4,0,"['4', '1', '4', '2', '4', '2']","[115.46784950001165, 115.54766430001473, 120.3878274000017, 121.01983130001463, 122.85190510001848, 122.92375350001385]",5,6,# # # # # #,None,115.46784950001165,115.54766430001473,120.3878274000017,121.01983130001463,122.85190510001848,122.92375350001385,3.88412370000151,0.07981480000307783,4.840163099986967,0.6320039000129327,1.8320738000038546,0.07184839999536052
134,22,0.0,3,False,0.0,None,right,False,2,1,0,enc,0,0,0,[],[],5,6,2 3 3 3 4 2,6,0.0,0.0,0.0,0.0,0.0,0.0,0,0.0,0.0,0.0,0.0,0.0
135,23,4.8639648,3,True,0.5,acc,right,True,2,1,3,ret,1,3,0,"['2', '4', '3', '4', '4', '3']","[129.9798496000003, 130.61172040001838, 131.08383600000525, 134.15584990000934, 134.39582830001018, 134.8438143999956]",5,6,# # # # # #,None,129.9798496000003,130.61172040001838,131.08383600000525,134.15584990000934,134.39582830001018,134.8438143999956,0.5560960999864619,0.6318708000180777,0.47211559998686425,3.0720139000040945,0.2399784000008367,0.44798609998542815
136,0,0.0,2,False,0.0,None,right,False,2,1,0,enc,0,0,1,[],[],6,6,2 3 1 1 2 3,4,0.0,0.0,0.0,0.0,0.0,0.0,0,0.0,0.0,0.0,0.0,0.0
137,1,0.9040161,2,True,0.5,acc,right,False,2,1,6,ret,1,10,1,"['2', '3', '1', '1', '2', '3']","[7.251318499998888, 7.3152266000106465, 7.75523599999724, 7.915395599993644, 8.123374000017066, 8.155334600014612]",6,6,# # # # # #,None,7.251318499998888,7.3152266000106465,7.75523599999724,7.915395599993644,8.123374000017066,8.155334600014612,NaN,0.0639081000117585,0.44000939998659305,0.16015959999640472,0.20797840002342127,0.031960599997546524
138,2,0.0,3,False,0.0,None,right,False,2,1,0,enc,0,0,1,[],[],6,6,2 3 3 4 2 2,6,0.0,0.0,0.0,0.0,0.0,0.0,0,0.0,0.0,0.0,0.0,0.0
139,3,2.144412,3,True,0.5,acc,right,False,2,1,6,ret,1,10,1,"['2', '3', '3', '4', '2', '2']","[15.019174899993232, 15.067288899997948, 15.659262500004843, 16.75522940000519, 17.00376310001593, 17.163586900016526]",6,6,# # # # # #,None,15.019174899993232,15.067288899997948,15.659262500004843,16.75522940000519,17.00376310001593,17.163586900016526,0.36384029997861944,0.04811400000471622,0.5919736000068951,1.0959669000003487,0.24853370001073927,0.15982380000059493
140,4,0.0,2,False,0.0,None,right,False,2,1,0,enc,0,0,0,[],[],6,6,3 1 2 4 4 4,4,0.0,0.0,0.0,0.0,0.0,0.0,0,0.0,0.0,0.0,0.0,0.0
141,5,5.1675185,2,True,0.5,acc,right,False,2,1,6,ret,1,10,0,"['4', '4', '4', '2', '1', '3']","[25.83584109999356, 26.02728870001738, 29.075240400008624, 29.307234700012486, 30.915216399997007, 31.003359599999385]",6,6,# # # # # #,None,25.83584109999356,26.02728870001738,29.075240400008624,29.307234700012486,30.915216399997007,31.003359599999385,2.172254199977033,0.191447600023821,3.047951699991245,0.231994300003862,1.6079816999845207,0.08814320000237785
142,6,0.0,3,False,0.0,None,right,False,2,1,0,enc,0,0,1,[],[],6,6,3 3 1 3 2 2,6,0.0,0.0,0.0,0.0,0.0,0.0,0,0.0,0.0,0.0,0.0,0.0
143,7,1.9040505,3,True,0.5,acc,right,False,2,1,6,ret,1,10,1,"['3', '3', '1', '3', '2', '2']","[37.92335060000187, 38.107121900015045, 38.26739720001933, 39.483277599996654, 39.67528280001716, 39.827401100017596]",6,6,# # # # # #,None,37.92335060000187,38.107121900015045,38.26739720001933,39.483277599996654,39.67528280001716,39.827401100017596,0.4199910000024829,0.1837713000131771,0.1602753000042867,1.2158803999773227,0.19200520002050325,0.15211830000043847
144,8,0.0,2,False,0.0,None,right,False,2,1,0,enc,0,0,1,[],[],6,6,1 2 2 2 4 1,4,0.0,0.0,0.0,0.0,0.0,0.0,0,0.0,0.0,0.0,0.0,0.0
145,9,1.9040312,2,True,0.5,acc,right,False,2,1,6,ret,1,10,1,"['1', '2', '2', '2', '4', '1']","[48.547264599998016, 48.61125610000454, 49.58725609999965, 49.78724540001713, 50.3392686000152, 50.4512958000123]",6,6,# # # # # #,None,48.547264599998016,48.61125610000454,49.58725609999965,49.78724540001713,50.3392686000152,50.4512958000123,2.21986349998042,0.06399150000652298,0.9759999999951106,0.19998930001747794,0.5520231999980751,0.11202719999710098
146,10,0.0,3,False,0.0,None,right,False,2,1,0,enc,0,0,1,[],[],6,6,3 1 4 4 2 4,6,0.0,0.0,0.0,0.0,0.0,0.0,0,0.0,0.0,0.0,0.0,0.0
147,11,3.9923874,3,True,0.5,acc,right,True,2,1,5,ret,1,5,1,"['1', '1', '4', '4', '2', '4']","[58.52326610000455, 60.17124930000864, 60.66728230001172, 62.15527760001714, 62.37121830001706, 62.515653500013286]",6,6,# # # # # #,None,58.52326610000455,60.17124930000864,60.66728230001172,62.15527760001714,62.37121830001706,62.515653500013286,1.5719702999922447,1.6479832000040915,0.4960330000030808,1.487995300005423,0.21594069999991916,0.14443519999622367
148,12,0.0,3,False,0.0,None,right,False,2,1,0,enc,0,0,0,[],[],6,6,3 4 1 3 4 2,6,0.0,0.0,0.0,0.0,0.0,0.0,0,0.0,0.0,0.0,0.0,0.0
149,13,4.91198,3,True,0.5,acc,right,False,2,1,6,ret,1,10,0,"['2', '4', '3', '1', '4', '3']","[70.5712809000106, 71.45931850001216, 71.72330010001315, 73.71518470000592, 75.17136340000434, 75.48326090001501]",6,6,# # # # # #,None,70.5712809000106,71.45931850001216,71.72330010001315,73.71518470000592,75.17136340000434,75.48326090001501,1.55562739999732,0.8880376000015531,0.2639816000009887,1.9918845999927726,1.4561786999984179,0.31189750001067296
150,14,0.0,3,False,0.0,None,right,False,2,1,0,enc,0,0,0,[],[],6,6,1 2 1 3 1 1,6,0.0,0.0,0.0,0.0,0.0,0.0,0,0.0,0.0,0.0,0.0,0.0
151,15,3.3679187,3,True,0.5,acc,right,False,2,1,6,ret,1,10,0,"['1', '1', '3', '1', '2', '1']","[82.45130230000359, 82.6352603000123, 83.65924080001423, 85.5312613999995, 85.72319910000078, 85.81922100001248]",6,6,# # # # # #,None,82.45130230000359,82.6352603000123,83.65924080001423,85.5312613999995,85.72319910000078,85.81922100001248,0.46804139998857863,0.18395800000871532,1.023980500001926,1.8720205999852624,0.19193770000129007,0.0960219000116922
152,16,0.0,2,False,0.0,None,right,False,2,1,0,enc,0,0,1,[],[],6,6,2 1 4 3 3 2,4,0.0,0.0,0.0,0.0,0.0,0.0,0,0.0,0.0,0.0,0.0,0.0
153,17,1.8479199,2,True,0.5,acc,right,False,2,1,6,ret,1,10,1,"['2', '1', '4', '3', '3', '2']","[94.77126569999382, 94.87528350000503, 95.67528200001107, 95.85927400001674, 96.53133840000373, 96.61918559999322]",6,6,# # # # # #,None,94.77126569999382,94.87528350000503,95.67528200001107,95.85927400001674,96.53133840000373,96.61918559999322,2.452044699981343,0.10401780001120642,0.7999985000060406,0.18399200000567362,0.6720643999869935,0.08784719998948276
154,18,0.0,2,False,0.0,None,right,False,2,1,0,enc,0,0,0,[],[],6,6,1 4 4 1 2 3,4,0.0,0.0,0.0,0.0,0.0,0.0,0,0.0,0.0,0.0,0.0,0.0
155,19,3.3761141,2,True,0.5,acc,right,False,2,1,6,ret,1,10,0,"['3', '2', '1', '4', '4', '1']","[105.83527090001735, 105.92326130002039, 108.09930100000929, 108.851233399997, 109.05123010001262, 109.21138500000234]",6,6,# # # # # #,None,105.83527090001735,105.92326130002039,108.09930100000929,108.851233399997,109.05123010001262,109.21138500000234,2.716085300024133,0.08799040000303648,2.1760396999889053,0.7519323999877088,0.19999670001561753,0.16015489998972043
156,20,0.0,2,False,0.0,None,right,False,2,1,0,enc,0,0,0,[],[],6,6,2 1 2 3 4 4,4,0.0,0.0,0.0,0.0,0.0,0.0,0,0.0,0.0,0.0,0.0,0.0
157,21,3.0960008,2,True,0.5,acc,right,False,2,1,6,ret,1,10,0,"['4', '4', '3', '2', '1', '2']","[117.87526640002034, 118.07529110001633, 119.69924070002162, 119.76317429999472, 120.91525650001131, 120.97126720001688]",6,6,# # # # # #,None,117.87526640002034,118.07529110001633,119.69924070002162,119.76317429999472,120.91525650001131,120.97126720001688,2.163881400017999,0.2000246999959927,1.6239496000052895,0.06393359997309744,1.1520822000165936,0.05601070000557229
158,22,0.0,3,False,0.0,None,right,False,2,1,0,enc,0,0,0,[],[],6,6,3 1 3 4 2 3,6,0.0,0.0,0.0,0.0,0.0,0.0,0,0.0,0.0,0.0,0.0,0.0
159,23,7.8641413,3,True,0.5,acc,right,True,2,1,3,ret,1,3,0,"['4', '1', '3', '3', '1', '3']","[128.81134569999995, 128.97960180000518, 130.22718529999838, 136.40382969999337, 136.54770490000374, 136.67548700000043]",6,6,# # # # # #,None,128.81134569999995,128.97960180000518,130.22718529999838,136.40382969999337,136.54770490000374,136.67548700000043,1.3400784999830648,0.16825610000523739,1.2475834999931976,6.176644399994984,0.14387520001037046,0.12778209999669343
160,0,0.0,2,False,0.0,None,right,False,2,1,0,enc,0,0,1,[],[],7,6,2 4 4 2 1 3,4,0.0,0.0,0.0,0.0,0.0,0.0,0,0.0,0.0,0.0,0.0,0.0
161,1,5.1359711,2,True,0.5,acc,right,False,2,1,6,ret,1,10,1,"['2', '4', '4', '2', '1', '3']","[7.498973599984311, 7.9150261000031605, 10.315007199998945, 10.547013200004585, 12.578817100002198, 12.634944699995685]",7,6,# # # # # #,None,7.498973599984311,7.9150261000031605,10.315007199998945,10.547013200004585,12.578817100002198,12.634944699995685,NaN,0.41605250001884997,2.3999810999957845,0.2320060000056401,2.0318038999976125,0.05612759999348782
162,2,0.0,3,False,0.0,None,right,False,2,1,0,enc,0,0,1,[],[],7,6,2 4 3 1 4 4,6,0.0,0.0,0.0,0.0,0.0,0.0,0,0.0,0.0,0.0,0.0,0.0
163,3,2.2399636,3,True,0.5,acc,right,False,2,1,6,ret,1,10,1,"['2', '4', '3', '1', '4', '4']","[19.499006400001235, 20.283041299990145, 20.49895559999277, 21.299002899992047, 21.578814799984684, 21.738970000005793]",7,6,# # # # # #,None,19.499006400001235,20.283041299990145,20.49895559999277,21.299002899992047,21.578814799984684,21.738970000005793,0.36406170000554994,0.7840348999889102,0.21591430000262335,0.800047299999278,0.27981189999263734,0.1601552000211086
164,4,0.0,3,False,0.0,None,right,False,2,1,0,enc,0,0,1,[],[],7,6,3 3 4 4 4 1,6,0.0,0.0,0.0,0.0,0.0,0.0,0,0.0,0.0,0.0,0.0,0.0
165,5,2.2399216,3,True,0.5,acc,right,False,2,1,6,ret,1,10,1,"['3', '3', '4', '4', '4', '1']","[28.810994400002528, 29.074943299987353, 30.07499170000665, 30.746963699988555, 30.922959799994715, 31.05091600000742]",7,6,# # # # # #,None,28.810994400002528,29.074943299987353,30.07499170000665,30.746963699988555,30.922959799994715,31.05091600000742,0.5720243999967352,0.2639488999848254,1.0000484000192955,0.6719719999819063,0.1759961000061594,0.12795620001270436
166,6,0.0,2,False,0.0,None,right,False,2,1,0,enc,0,0,1,[],[],7,6,4 1 2 3 3 2,4,0.0,0.0,0.0,0.0,0.0,0.0,0,0.0,0.0,0.0,0.0,0.0
167,7,2.2077877,2,True,0.5,acc,right,False,2,1,6,ret,1,10,1,"['4', '1', '2', '3', '3', '2']","[40.363091100007296, 40.563071999989916, 41.93107630001032, 42.09099399999832, 42.50694570000633, 42.57087880000472]",7,6,# # # # # #,None,40.363091100007296,40.563071999989916,41.93107630001032,42.09099399999832,42.50694570000633,42.57087880000472,2.8121750999998767,0.19998089998262003,1.3680043000204023,0.1599176999880001,0.41595170000800863,0.06393309999839403
168,8,0.0,3,False,0.0,None,right,False,2,1,0,enc,0,0,0,[],[],7,6,3 4 2 1 2 2,6,0.0,0.0,0.0,0.0,0.0,0.0,0,0.0,0.0,0.0,0.0,0.0
169,9,4.3679841,3,True,0.5,acc,right,True,2,1,5,ret,1,5,0,"['2', '2', '1', '2', '4', '2']","[49.93104749999475, 50.106904199987184, 50.24290290000499, 53.51499419999891, 54.123185100004775, 54.299031600006856]",7,6,# # # # # #,None,49.93104749999475,50.106904199987184,50.24290290000499,53.51499419999891,54.123185100004775,54.299031600006856,0.8601686999900267,0.17585669999243692,0.135998700017808,3.2720912999939173,0.6081909000058658,0.17584650000208057
170,10,0.0,2,False,0.0,None,right,False,2,1,0,enc,0,0,0,[],[],7,6,4 4 3 4 3 3,4,0.0,0.0,0.0,0.0,0.0,0.0,0,0.0,0.0,0.0,0.0,0.0
171,11,5.4720046,2,True,0.5,acc,right,False,2,1,6,ret,1,10,0,"['3', '3', '4', '3', '4', '4']","[62.938951099989936, 63.13092309999047, 66.33081640000455, 66.7149619999982, 68.24298419998377, 68.4109557000047]",7,6,# # # # # #,None,62.938951099989936,63.13092309999047,66.33081640000455,66.7149619999982,68.24298419998377,68.4109557000047,2.1399194999830797,0.19197200000053272,3.1998933000140823,0.3841455999936443,1.5280221999855712,0.16797150002093986
172,12,0.0,2,False,0.0,None,right,False,2,1,0,enc,0,0,0,[],[],7,6,4 1 4 1 4 2,4,0.0,0.0,0.0,0.0,0.0,0.0,0,0.0,0.0,0.0,0.0,0.0
173,13,3.0078946,2,True,0.5,acc,right,False,2,1,6,ret,1,10,0,"['2', '4', '1', '4', '1', '4']","[77.08305560000008, 77.25103200000012, 78.72290910000447, 78.80296070000622, 80.01893039999413, 80.09095019998495]",7,6,# # # # # #,None,77.08305560000008,77.25103200000012,78.72290910000447,78.80296070000622,80.01893039999413,80.09095019998495,2.1720998999953736,0.1679764000000432,1.471877100004349,0.08005160000175238,1.2159696999879088,0.07201979999081232
174,14,0.0,3,False,0.0,None,right,False,2,1,0,enc,0,0,1,[],[],7,6,2 1 4 3 1 2,6,0.0,0.0,0.0,0.0,0.0,0.0,0,0.0,0.0,0.0,0.0,0.0
175,15,1.3679032,3,True,0.5,acc,right,False,2,1,6,ret,1,10,1,"['2', '1', '4', '3', '1', '2']","[87.62698050000472, 87.75477669999236, 87.99496919999365, 88.7309385999979, 88.89936849998776, 88.99488369998289]",7,6,# # # # # #,None,87.62698050000472,87.75477669999236,87.99496919999365,88.7309385999979,88.89936849998776,88.99488369998289,1.0360303000197746,0.12779619998764247,0.24019250000128523,0.7359694000042509,0.16842989998986013,0.09551519999513403
176,16,0.0,2,False,0.0,None,right,False,2,1,0,enc,0,0,0,[],[],7,6,4 4 4 2 4 2,4,0.0,0.0,0.0,0.0,0.0,0.0,0,0.0,0.0,0.0,0.0,0.0
177,17,2.1920464,2,True,0.5,acc,right,False,2,1,6,ret,1,10,0,"['2', '4', '2', '4', '4', '4']","[98.0269818000088, 98.15497020000475, 98.73892979999073, 98.85893919999944, 100.05157079998753, 100.21902819999377]",7,6,# # # # # #,None,98.0269818000088,98.15497020000475,98.73892979999073,98.85893919999944,100.05157079998753,100.21902819999377,2.5320981000259053,0.12798839999595657,0.5839595999859739,0.12000940000871196,1.1926315999880899,0.1674574000062421
178,18,0.0,3,False,0.0,None,right,False,2,1,0,enc,0,0,0,[],[],7,6,3 1 4 4 2 4,6,0.0,0.0,0.0,0.0,0.0,0.0,0,0.0,0.0,0.0,0.0,0.0
179,19,3.6481281,3,True,0.5,acc,right,True,2,1,5,ret,1,5,0,"['4', '2', '4', '2', '1', '3']","[110.12282349998713, 110.32292559999041, 110.47596710000653, 113.13096109998878, 113.29096369998297, 113.77095159998862]",7,6,# # # # # #,None,110.12282349998713,110.32292559999041,110.47596710000653,113.13096109998878,113.29096369998297,113.77095159998862,3.4037952999933623,0.20010210000327788,0.1530415000161156,2.6549939999822527,0.1600025999941863,0.4799879000056535
180,20,0.0,3,False,0.0,None,right,False,2,1,0,enc,0,0,0,[],[],7,6,1 4 2 2 3 4,6,0.0,0.0,0.0,0.0,0.0,0.0,0,0.0,0.0,0.0,0.0,0.0
181,21,3.5759456,3,True,0.5,acc,right,True,2,1,4,ret,1,4,0,"['4', '3', '2', '2', '1', '4']","[121.75505340000382, 121.89903329999652, 122.08297769998899, 124.0827786999871, 124.61889419998624, 125.33099899999797]",7,6,# # # # # #,None,121.75505340000382,121.89903329999652,122.08297769998899,124.0827786999871,124.61889419998624,125.33099899999797,1.4841018000151962,0.14397989999270067,0.1839443999924697,1.999800999998115,0.5361154999991413,0.7121048000117298
182,22,0.0,2,False,0.0,None,right,False,2,1,0,enc,0,0,1,[],[],7,6,1 1 2 1 1 3,4,0.0,0.0,0.0,0.0,0.0,0.0,0,0.0,0.0,0.0,0.0,0.0
183,23,1.1200647,2,True,0.5,acc,right,False,2,1,6,ret,1,10,1,"['1', '1', '2', '1', '1', '3']","[133.8749506000022, 134.0829393999884, 134.33092449998367, 134.43499670000165, 134.8911031000025, 134.99501529999543]",7,6,# # # # # #,None,133.8749506000022,134.0829393999884,134.33092449998367,134.43499670000165,134.8911031000025,134.99501529999543,2.0439516000042204,0.20798879998619668,0.24798509999527596,0.10407220001798123,0.4561064000008628,0.10391219999291934
184,0,0.0,2,False,0.0,None,right,False,2,1,0,enc,0,0,1,[],[],8,6,4 2 3 2 2 2,4,0.0,0.0,0.0,0.0,0.0,0.0,0,0.0,0.0,0.0,0.0,0.0
185,1,1.6640169,2,True,0.5,acc,right,False,2,1,6,ret,1,10,1,"['4', '2', '3', '2', '2', '2']","[8.398175500013167, 8.662114700011443, 9.34227120000287, 9.486134200007655, 9.918179400003282, 10.062192400015192]",8,6,# # # # # #,None,8.398175500013167,8.662114700011443,9.34227120000287,9.486134200007655,9.918179400003282,10.062192400015192,NaN,0.2639391999982763,0.6801564999914262,0.14386300000478514,0.4320451999956276,0.14401300001190975
186,2,0.0,2,False,0.0,None,right,False,2,1,0,enc,0,0,1,[],[],8,6,1 1 1 3 1 4,4,0.0,0.0,0.0,0.0,0.0,0.0,0,0.0,0.0,0.0,0.0,0.0
187,3,1.5039043,2,True,0.5,acc,right,False,2,1,6,ret,1,10,1,"['1', '1', '1', '3', '1', '4']","[18.270229800022207, 18.478145300003234, 18.966209400008665, 19.238351200008765, 19.574142099998426, 19.77413410000736]",8,6,# # # # # #,None,18.270229800022207,18.478145300003234,18.966209400008665,19.238351200008765,19.574142099998426,19.77413410000736,1.708037400007015,0.2079154999810271,0.4880641000054311,0.27214180000009947,0.33579089998966083,0.19999200000893325
188,4,0.0,2,False,0.0,None,right,False,2,1,0,enc,0,0,0,[],[],8,6,2 1 2 1 3 4,4,0.0,0.0,0.0,0.0,0.0,0.0,0,0.0,0.0,0.0,0.0,0.0
189,5,1.7839262,2,True,0.5,acc,right,False,2,1,6,ret,1,10,0,"['4', '3', '1', '2', '1', '2']","[28.782209400000283, 29.022154900012538, 30.230193299998064, 30.302068900025915, 30.51019030000316, 30.56613560000551]",8,6,# # # # # #,None,28.782209400000283,29.022154900012538,30.230193299998064,30.302068900025915,30.51019030000316,30.56613560000551,2.5080752999929246,0.23994550001225434,1.2080383999855258,0.07187560002785176,0.20812139997724444,0.05594530000234954
190,6,0.0,2,False,0.0,None,right,False,2,1,0,enc,0,0,1,[],[],8,6,1 3 1 4 2 3,4,0.0,0.0,0.0,0.0,0.0,0.0,0,0.0,0.0,0.0,0.0,0.0
191,7,1.1760335,2,True,0.5,acc,right,False,2,1,6,ret,1,10,1,"['1', '3', '1', '4', '2', '3']","[39.22215100002359, 39.43816109999898, 39.71002620001673, 39.90220490001957, 40.35817540000426, 40.39818450002349]",8,6,# # # # # #,None,39.22215100002359,39.43816109999898,39.71002620001673,39.90220490001957,40.35817540000426,40.39818450002349,2.1560154000180773,0.21601009997539222,0.2718651000177488,0.19217870000284165,0.4559704999846872,0.0400091000192333
192,8,0.0,3,False,0.0,None,right,False,2,1,0,enc,0,0,1,[],[],8,6,1 4 3 3 2 2,6,0.0,0.0,0.0,0.0,0.0,0.0,0,0.0,0.0,0.0,0.0,0.0
193,9,1.6639591,3,True,0.5,acc,right,False,2,1,6,ret,1,10,1,"['1', '4', '3', '3', '2', '2']","[47.09418290000758, 47.598066400008975, 47.838001500000246, 48.34211120000691, 48.5899801000196, 48.758142000006046]",8,6,# # # # # #,None,47.09418290000758,47.598066400008975,47.838001500000246,48.34211120000691,48.5899801000196,48.758142000006046,0.19599839998409152,0.5038835000013933,0.23993509999127127,0.5041097000066657,0.24786890001269057,0.16816189998644404
194,10,0.0,2,False,0.0,None,right,False,2,1,0,enc,0,0,0,[],[],8,6,4 3 3 4 4 1,4,0.0,0.0,0.0,0.0,0.0,0.0,0,0.0,0.0,0.0,0.0,0.0
195,11,3.7360097,2,True,0.5,acc,right,False,2,1,6,ret,1,10,0,"['1', '4', '4', '3', '3', '4']","[57.29413449999993, 57.42214070001501, 60.254159400006756, 60.702268200024264, 60.870099200023105, 61.030144200020004]",8,6,# # # # # #,None,57.29413449999993,57.42214070001501,60.254159400006756,60.702268200024264,60.870099200023105,61.030144200020004,2.035992499993881,0.12800620001507923,2.8320186999917496,0.44810880001750775,0.16783099999884143,0.1600449999968987
196,12,0.0,2,False,0.0,None,right,False,2,1,0,enc,0,0,0,[],[],8,6,3 1 3 2 4 2,4,0.0,0.0,0.0,0.0,0.0,0.0,0,0.0,0.0,0.0,0.0,0.0
197,13,7.3041409,2,True,0.5,acc,right,True,2,1,5,ret,1,5,0,"['2', '4', '2', '4', '1', '3']","[70.39008100001956, 70.61412690000725, 73.57416100002592, 73.72611640000832, 77.61426480000955, 77.69422190001933]",8,6,# # # # # #,None,70.39008100001956,70.61412690000725,73.57416100002592,73.72611640000832,77.61426480000955,77.69422190001933,2.8599367999995593,0.22404589998768643,2.9600341000186745,0.15195539998239838,3.888148400001228,0.07995710000977851
198,14,0.0,3,False,0.0,None,right,False,2,1,0,enc,0,0,1,[],[],8,6,1 3 2 3 3 3,6,0.0,0.0,0.0,0.0,0.0,0.0,0,0.0,0.0,0.0,0.0,0.0
199,15,1.0719272,3,True,0.5,acc,right,False,2,1,6,ret,1,10,1,"['1', '3', '2', '3', '3', '3']","[84.34221790000447, 84.54195830001845, 84.60611590000917, 85.10219220002182, 85.26996470001177, 85.41414510001778]",8,6,# # # # # #,None,84.34221790000447,84.54195830001845,84.60611590000917,85.10219220002182,85.26996470001177,85.41414510001778,0.14799599998514168,0.19974040001397952,0.06415759999072179,0.49607630001264624,0.16777249998995103,0.1441804000060074
200,16,0.0,3,False,0.0,None,right,False,2,1,0,enc,0,0,1,[],[],8,6,4 2 4 4 2 4,6,0.0,0.0,0.0,0.0,0.0,0.0,0,0.0,0.0,0.0,0.0,0.0
201,17,1.2800216,3,True,0.5,acc,right,False,2,1,6,ret,1,10,1,"['4', '2', '4', '4', '2', '4']","[92.31013920000987, 92.53415870000026, 92.71013820002554, 93.31816450000042, 93.49411420000251, 93.59016079999856]",8,6,# # # # # #,None,92.31013920000987,92.53415870000026,92.71013820002554,93.31816450000042,93.49411420000251,93.59016079999856,0.39599409999209456,0.2240194999903906,0.17597950002527796,0.6080262999748811,0.17594970000209287,0.09604659999604337
202,18,0.0,3,False,0.0,None,right,False,2,1,0,enc,0,0,0,[],[],8,6,1 2 2 3 1 1,6,0.0,0.0,0.0,0.0,0.0,0.0,0,0.0,0.0,0.0,0.0,0.0
203,19,4.4640394,3,True,0.5,acc,right,False,2,1,6,ret,1,10,0,"['1', '1', '3', '2', '2', '1']","[100.14998539999942, 100.32615150001948, 101.50195570001961, 104.36614650001866, 104.52612790002604, 104.61402480001561]",8,6,# # # # # #,None,100.14998539999942,100.32615150001948,101.50195570001961,104.36614650001866,104.52612790002604,104.61402480001561,0.05982460000086576,0.17616610002005473,1.1758042000001296,2.864190799999051,0.15998140000738204,0.08789689998957328
204,20,0.0,3,False,0.0,None,right,False,2,1,0,enc,0,0,0,[],[],8,6,2 3 1 1 3 4,6,0.0,0.0,0.0,0.0,0.0,0.0,0,0.0,0.0,0.0,0.0,0.0
205,21,4.7044127,3,True,0.5,acc,right,False,2,1,6,ret,1,10,0,"['4', '3', '1', '1', '3', '2']","[112.07822620001389, 112.38997290001134, 112.57404160001897, 114.65410860002157, 116.67798180002137, 116.78263890001108]",8,6,# # # # # #,None,112.07822620001389,112.38997290001134,112.57404160001897,114.65410860002157,116.67798180002137,116.78263890001108,0.9642013999982737,0.31174669999745674,0.18406870000762865,2.0800670000026003,2.023873199999798,0.10465709998970851
206,22,0.0,3,False,0.0,None,right,False,2,1,0,enc,0,0,0,[],[],8,6,4 3 2 2 1 3,6,0.0,0.0,0.0,0.0,0.0,0.0,0,0.0,0.0,0.0,0.0,0.0
207,23,3.872047,3,True,0.5,acc,right,False,2,1,6,ret,1,10,0,"['3', '1', '2', '2', '3', '4']","[124.17410630002269, 124.33412680000765, 124.45410120001179, 127.67010050002136, 127.82210530000157, 128.04615330000524]",8,6,# # # # # #,None,124.17410630002269,124.33412680000765,124.45410120001179,127.67010050002136,127.82210530000157,128.04615330000524,0.8914674000116065,0.1600204999849666,0.11997440000413917,3.215999300009571,0.15200479998020455,0.22404800000367686
