1234,MT,Unnamed: 0,Unnamed: 0.1,Unnamed: 0.1.1,Unnamed: 0.1.1.1,Unnamed: 0.1.1.1.1,Unnamed: 0.1.1.1.1.1,Unnamed: 0.1.1.1.1.1.1,Unnamed: 0.1.1.1.1.1.1.1,Unnamed: 0.1.1.1.1.1.1.1.1,chunk,display_trial_feedback,feedback_dur,feedback_type,hand,is_error,item_dur,iti_dur,number_correct,phase,phase_type,points,recall_dir,response,response_time,run_number,seq_length,seq_str,trial_dur
0,0,0,0,0,0,0,0,0,0,0,3,FALSE,0,None,right,FALSE,2,1,0,enc,0,0,1,[],[],1,6,2 2 2 4 4 3,6
1,4.5520139,1,1,1,1,1,1,1,1,1,3,TRUE,0.5,acc,right,FALSE,2,1,6,ret,1,10,1,"['2', '2', '2', '4', '4', '3']","[7.077982099988731, 7.373946499981685, 7.654420899983961, 11.045988300000317, 11.278051999979652, 11.629996000003302]",1,6,# # # # # #,None
2,0,2,2,2,2,2,2,2,2,2,3,FALSE,0,None,right,FALSE,2,1,0,enc,0,0,1,[],[],1,6,1 3 1 3 1 2,6
3,3.2240328,3,3,3,3,3,3,3,3,3,3,TRUE,0.5,acc,right,FALSE,2,1,6,ret,1,10,1,"['1', '3', '1', '3', '1', '2']","[18.654032499995083, 19.87775970000075, 20.25389969997923, 21.55794440000318, 21.749849899992114, 21.878065299999435]",1,6,# # # # # #,None
4,0,4,4,4,4,4,4,4,4,4,3,FALSE,0,None,right,FALSE,2,1,0,enc,0,0,0,[],[],1,6,4 1 4 3 4 3,6
5,1.0878168,5,5,5,5,5,5,5,5,5,3,TRUE,0.5,acc,right,TRUE,2,1,1,ret,1,1,0,"['1', '2', '1', '1', '1', '3']","[30.582147999986773, 30.710534199984977, 30.822369500005152, 31.093922800006112, 31.549978199996985, 31.66996480000671]",1,6,# # # # # #,None
6,0,6,6,6,6,6,6,6,6,6,2,FALSE,0,None,right,FALSE,2,1,0,enc,0,0,1,[],[],1,6,4 3 4 1 4 4,4
7,2.079932,7,7,7,7,7,7,7,7,7,2,TRUE,0.5,acc,right,FALSE,2,1,6,ret,1,10,1,"['4', '3', '4', '1', '4', '4']","[41.53394649998518, 42.10991939998348, 42.58197529998142, 42.92590959998779, 43.38986679998925, 43.613878499978455]",1,6,# # # # # #,None
8,0,8,8,8,8,8,8,8,8,8,2,FALSE,0,None,right,FALSE,2,1,0,enc,0,0,0,[],[],1,6,4 1 3 3 1 4,4
9,5.4239892,9,9,9,9,9,9,9,9,9,2,TRUE,0.5,acc,right,TRUE,2,1,4,ret,1,4,0,"['4', '1', '3', '3', '4', '1']","[54.42991909998818, 55.23774660000345, 57.67774250000366, 57.91813209999236, 59.67787439998938, 59.85390829999233]",1,6,# # # # # #,None
10,0,10,10,10,10,10,10,10,10,10,2,FALSE,0,None,right,FALSE,2,1,0,enc,0,0,0,[],[],1,6,1 3 4 2 2 2,4
11,5.7999823,11,11,11,11,11,11,11,11,11,2,TRUE,0.5,acc,right,TRUE,2,1,2,ret,1,2,0,"['1', '2', '3', '1', '4', '1']","[68.33393839999917, 70.58189349999884, 72.54174819999025, 72.79790639999555, 73.84589969998342, 74.13392069999827]",1,6,# # # # # #,None
12,0,12,12,12,12,12,12,12,12,12,3,FALSE,0,None,right,FALSE,2,1,0,enc,0,0,0,[],[],1,6,4 1 1 1 4 3,6
13,5.7119769,13,13,13,13,13,13,13,13,13,3,TRUE,0.5,acc,right,TRUE,2,1,5,ret,1,5,0,"['3', '4', '1', '1', '1', '3']","[82.50203079998028, 83.88590449999901, 84.34997399998247, 87.03790939997998, 87.4699963000021, 88.21400769997854]",1,6,# # # # # #,None
14,0,14,14,14,14,14,14,14,14,14,2,FALSE,0,None,right,FALSE,2,1,0,enc,0,0,1,[],[],1,6,1 2 3 4 3 1,4
15,3.8959425,15,15,15,15,15,15,15,15,15,2,TRUE,0.5,acc,right,FALSE,2,1,6,ret,1,10,1,"['1', '2', '3', '4', '3', '1']","[97.32600299999467, 97.81392190000042, 98.82991939998465, 99.22191709998879, 100.92598749999888, 101.22194550000131]",1,6,# # # # # #,None
16,0,16,16,16,16,16,16,0,0,,3,FALSE,0,None,right,FALSE,2,1,0,enc,0,0,1,[],[],1,6,4 2 2 1 1 2,6
17,2.9999695,17,17,17,17,17,17,1,1,,3,TRUE,0.5,acc,right,TRUE,2,1,4,ret,1,4,1,"['4', '1', '1', '1', '1', '2']","[5.394970599998487, 5.91497059998801, 6.146978999982821, 7.9308928999817, 8.131005499977618, 8.394940099999076]",1,6,# # # # # #,None
18,0,18,18,18,18,18,18,2,2,,3,FALSE,0,None,right,FALSE,2,1,0,enc,0,0,1,[],[],1,6,3 3 2 2 3 3,6
19,4.5200019,19,19,19,19,19,19,3,3,,3,TRUE,0.5,acc,right,FALSE,2,1,6,ret,1,10,1,"['3', '3', '2', '2', '3', '3']","[16.338873999979114, 16.746980999974767, 17.155014999996638, 19.818845599977067, 20.594852699985495, 20.858875899983104]",1,6,# # # # # #,None
20,0,20,20,20,20,20,20,4,4,,2,FALSE,0,None,right,FALSE,2,1,0,enc,0,0,0,[],[],1,6,1 4 4 2 2 1,4
21,5.3679437,21,21,21,21,21,21,5,5,,2,TRUE,0.5,acc,right,FALSE,2,1,6,ret,1,10,0,"['1', '2', '2', '4', '4', '1']","[33.922949300002074, 34.38691549998475, 36.98704779997934, 37.79496389999986, 39.11494379999931, 39.290892999997595]",1,6,# # # # # #,None
22,0,22,22,22,22,22,22,6,6,,3,FALSE,0,None,right,FALSE,2,1,0,enc,0,0,0,[],[],1,6,2 3 3 2 4 1,6
23,7.7840949,23,23,23,23,23,23,7,7,,3,TRUE,0.5,acc,right,FALSE,2,1,6,ret,1,10,0,"['1', '4', '2', '3', '3', '2']","[47.322830899996916, 49.21091389999492, 50.010945999994874, 52.49088319999282, 52.91493529998115, 55.106925799977034]",1,6,# # # # # #,None
24,0,24,24,24,24,24,24,8,8,,2,FALSE,0,None,right,FALSE,2,1,0,enc,0,0,0,[],[],1,6,4 3 2 1 3 4,4
25,8.8487553,25,25,25,25,25,25,9,9,,2,TRUE,0.5,acc,right,FALSE,2,1,6,ret,1,10,0,"['4', '3', '1', '2', '3', '4']","[65.61099089999334, 66.70692529997905, 71.09084979997715, 71.53890639997553, 74.25091489998158, 74.45974619998015]",1,6,# # # # # #,None
26,0,26,26,26,26,26,26,10,10,,2,FALSE,0,None,right,FALSE,2,1,0,enc,0,0,1,[],[],1,6,4 3 3 1 1 2,4
27,3.6800021,27,27,27,27,27,27,11,11,,2,TRUE,0.5,acc,right,TRUE,2,1,4,ret,1,4,1,"['4', '3', '2', '1', '1', '3']","[84.63491399999475, 84.8508773999929, 86.64292109999224, 86.74694889999228, 88.2188715999946, 88.31491609997465]",1,6,# # # # # #,None
28,0,28,28,28,28,28,28,12,12,,3,FALSE,0,None,right,FALSE,2,1,0,enc,0,0,0,[],[],1,6,2 3 4 2 2 1,6
29,5.6721442,29,29,29,29,29,29,13,13,,3,TRUE,0.5,acc,right,FALSE,2,1,6,ret,1,10,0,"['1', '2', '2', '4', '3', '2']","[96.3228694999998, 97.33092579999357, 97.5307746999897, 99.92288399999961, 101.84293539999635, 101.99501369998325]",1,6,# # # # # #,None
30,0,30,30,30,30,30,30,14,14,,2,FALSE,0,None,right,FALSE,2,1,0,enc,0,0,1,[],[],1,6,4 2 3 4 2 1,4
31,5.3836667,31,31,31,31,31,31,15,15,,2,TRUE,0.5,acc,right,FALSE,2,1,6,ret,1,10,1,"['4', '2', '3', '4', '2', '1']","[113.05127060000086, 114.23493069998221, 115.95495759998448, 116.1233557999949, 118.36279889999423, 118.4349372999859]",1,6,# # # # # #,None
32,0,32,32,32,32,32,32,16,16,,2,FALSE,0,None,right,FALSE,2,1,0,enc,0,0,1,[],[],1,6,1 4 1 3 2 4,4
33,3.8804413,33,33,33,33,33,33,17,17,,2,TRUE,0.5,acc,right,TRUE,2,1,4,ret,1,4,1,"['1', '3', '1', '3', '2', '5']","[127.14697010000236, 127.47511589998612, 128.79497029999038, 129.09895109999343, 130.83488079998642, 131.02741139999125]",1,6,# # # # # #,None
34,0,34,34,34,34,34,34,18,18,,3,FALSE,0,None,right,FALSE,2,1,0,enc,0,0,0,[],[],1,6,2 3 3 3 3 4,6
35,3.9202265,35,35,35,35,35,35,19,19,,3,TRUE,0.5,acc,right,FALSE,2,1,6,ret,1,10,0,"['4', '3', '3', '3', '3', '2']","[138.2107537999982, 138.9469571999798, 139.1789780999825, 141.7389075999963, 141.93896469997708, 142.13098029998946]",1,6,# # # # # #,None
36,0,36,36,36,36,36,36,20,20,,3,FALSE,0,None,right,FALSE,2,1,0,enc,0,0,1,[],[],1,6,1 1 3 2 2 4,6
37,1.8318773,37,37,37,37,37,37,21,21,,3,TRUE,0.5,acc,right,FALSE,2,1,6,ret,1,10,1,"['1', '1', '3', '2', '2', '4']","[148.73891189999995, 148.95499879997806, 149.2109480999934, 150.20294219997595, 150.41089579998516, 150.57078919999185]",1,6,# # # # # #,None
38,0,38,38,38,38,38,38,22,22,,2,FALSE,0,None,right,FALSE,2,1,0,enc,0,0,0,[],[],1,6,4 1 1 1 4 4,4
39,5.4478287,39,39,39,39,39,39,23,23,,2,TRUE,0.5,acc,right,FALSE,2,1,6,ret,1,10,0,"['4', '4', '1', '1', '1', '4']","[159.29903480000212, 159.50694399999338, 161.84291409997968, 162.25889899997856, 164.45071839998127, 164.74686349998228]",1,6,# # # # # #,None
40,0,40,40,40,40,40,0,0,,,3,FALSE,0,None,right,FALSE,2,1,0,enc,0,0,1,[],[],2,6,3 2 2 3 2 3,6
41,2.2320784,41,41,41,41,41,1,1,,,3,TRUE,0.5,acc,right,FALSE,2,1,6,ret,1,10,1,"['3', '2', '2', '3', '2', '3']","[5.67022079997696, 5.95031809998909, 6.1663815999927465, 7.566275599994697, 7.766360099980375, 7.9022991999809165]",2,6,# # # # # #,None
42,0,42,42,42,42,42,2,2,,,2,FALSE,0,None,right,FALSE,2,1,0,enc,0,0,1,[],[],2,6,2 4 4 4 4 1,4
43,3.0801703,43,43,43,43,43,3,3,,,2,TRUE,0.5,acc,right,FALSE,2,1,6,ret,1,10,1,"['2', '4', '4', '4', '4', '1']","[17.446312899992336, 17.95822099997895, 19.174320499994792, 19.4222454999981, 20.350295499985805, 20.52648319999571]",2,6,# # # # # #,None
44,0,44,44,44,44,44,4,4,,,3,FALSE,0,None,right,FALSE,2,1,0,enc,0,0,1,[],[],2,6,1 4 1 4 4 3,6
45,2.5439027,45,45,45,45,45,5,5,,,3,TRUE,0.5,acc,right,FALSE,2,1,6,ret,1,10,1,"['1', '4', '1', '4', '4', '3']","[27.694196500000544, 28.038254399987636, 28.310289899993222, 28.99033309999504, 29.24660079999012, 30.23809919998166]",2,6,# # # # # #,None
46,0,46,46,46,46,46,6,6,,,3,FALSE,0,None,right,FALSE,2,1,0,enc,0,0,0,[],[],2,6,1 3 1 3 1 3,6
47,3.3841611,47,47,47,47,47,7,7,,,3,TRUE,0.5,acc,right,FALSE,2,1,6,ret,1,10,0,"['3', '1', '3', '1', '3', '1']","[38.926292299991474, 39.51027429997339, 39.862389199988684, 41.52643269998953, 42.04624419999891, 42.31045339998673]",2,6,# # # # # #,None
48,0,48,48,48,48,48,8,8,,,2,FALSE,0,None,right,FALSE,2,1,0,enc,0,0,0,[],[],2,6,2 1 4 4 4 2,4
49,5.8720281,49,49,49,49,49,9,9,,,2,TRUE,0.5,acc,right,FALSE,2,1,6,ret,1,10,0,"['2', '4', '4', '4', '1', '2']","[52.43833169998834, 53.31824090000009, 55.254262699978426, 55.542394699994475, 58.238718999986304, 58.310359800001606]",2,6,# # # # # #,None
50,0,50,50,50,50,50,10,10,,,3,FALSE,0,None,right,FALSE,2,1,0,enc,0,0,0,[],[],2,6,3 3 4 1 2 3,6
51,3.4321993,51,51,51,51,51,11,11,,,3,TRUE,0.5,acc,right,FALSE,2,1,6,ret,1,10,0,"['3', '2', '1', '4', '3', '3']","[65.55815839997376, 65.70292589999735, 65.87050459999591, 68.11826179997297, 68.80644299997948, 68.99035769997863]",2,6,# # # # # #,None
52,0,52,52,52,52,52,12,12,,,2,FALSE,0,None,right,FALSE,2,1,0,enc,0,0,0,[],[],2,6,4 2 2 2 3 1,4
53,4.5360072,53,53,53,53,53,13,13,,,2,TRUE,0.5,acc,right,TRUE,2,1,5,ret,1,5,0,"['1', '3', '2', '2', '4', '4']","[77.8702784999914, 79.03822019998915, 81.08624779997626, 81.3102456999768, 82.20624759999919, 82.4062856999808]",2,6,# # # # # #,None
54,0,54,54,54,54,54,14,14,,,3,FALSE,0,None,right,FALSE,2,1,0,enc,0,0,1,[],[],2,6,3 2 2 1 1 4,6
55,1.3680632,55,55,55,55,55,15,15,,,3,TRUE,0.5,acc,right,FALSE,2,1,6,ret,1,10,1,"['3', '2', '2', '1', '1', '4']","[89.4861839999794, 89.7183468999865, 89.91021969998837, 90.23027169998386, 90.43827469999087, 90.85424719998264]",2,6,# # # # # #,None
56,0,56,56,56,56,56,16,16,,,2,FALSE,0,None,right,FALSE,2,1,0,enc,0,0,0,[],[],2,6,4 3 2 1 2 2,4
57,5.8638923,57,57,57,57,57,17,17,,,2,TRUE,0.5,acc,right,FALSE,2,1,6,ret,1,10,0,"['2', '2', '1', '2', '3', '4']","[100.02234319999116, 100.2307962999912, 102.35827679999056, 103.03824589998112, 105.79831549999653, 105.88623549998738]",2,6,# # # # # #,None
58,0,58,58,58,58,58,18,18,,,2,FALSE,0,None,right,FALSE,2,1,0,enc,0,0,1,[],[],2,6,3 1 4 4 2 3,4
59,2.6000939,59,59,59,59,59,19,19,,,2,TRUE,0.5,acc,right,FALSE,2,1,6,ret,1,10,1,"['3', '1', '4', '4', '2', '3']","[114.84610969998175, 114.99870450000162, 116.21431789998314, 116.42233879998093, 117.39831399999093, 117.44620359997498]",2,6,# # # # # #,None
60,0,60,60,60,60,60,20,20,,,3,FALSE,0,None,right,FALSE,2,1,0,enc,0,0,0,[],[],2,6,1 1 4 4 3 2,6
61,3.4559031,61,61,61,61,61,21,21,,,3,TRUE,0.5,acc,right,TRUE,2,1,5,ret,1,5,0,"['2', '3', '4', '4', '4', '1']","[125.49436139999307, 126.11021859999164, 126.51835329999449, 128.51028209997457, 128.75025599999935, 128.9502644999884]",2,6,# # # # # #,None
62,0,62,62,62,62,62,22,22,,,2,FALSE,0,None,right,FALSE,2,1,0,enc,0,0,1,[],[],2,6,4 2 1 2 4 1,4
63,2.6400007,63,63,63,63,63,23,23,,,2,TRUE,0.5,acc,right,FALSE,2,1,6,ret,1,10,1,"['4', '2', '1', '2', '4', '1']","[137.7982591999753, 138.52635379999992, 139.35822579998057, 139.44614149999688, 140.31824909997522, 140.4382598999946]",2,6,# # # # # #,None
64,0,64,64,64,64,0,0,,,,2,FALSE,0,None,right,FALSE,2,1,0,enc,0,0,1,[],[],3,6,1 3 3 1 2 3,4
65,1.8959274,65,65,65,65,1,1,,,,2,TRUE,0.5,acc,right,FALSE,2,1,6,ret,1,10,1,"['1', '3', '3', '1', '2', '3']","[6.901481899985811, 7.173465200001374, 7.965396599989617, 8.085459599999012, 8.725440100010019, 8.797409299993888]",3,6,# # # # # #,None
66,0,66,66,66,66,2,2,,,,3,FALSE,0,None,right,FALSE,2,1,0,enc,0,0,0,[],[],3,6,2 3 1 2 2 1,6
67,6.7763328,67,67,67,67,3,3,,,,3,TRUE,0.5,acc,right,TRUE,2,1,2,ret,1,2,0,"['1', '3', '2', '3', '2', '1']","[16.56538129999535, 18.181434800004354, 19.237442699988605, 22.701307100011036, 23.181458799983375, 23.341714100009995]",3,6,# # # # # #,None
68,0,68,68,68,68,4,4,,,,3,FALSE,0,None,right,FALSE,2,1,0,enc,0,0,1,[],[],3,6,4 1 3 2 2 1,6
69,1.3120108,69,69,69,69,5,5,,,,3,TRUE,0.5,acc,right,FALSE,2,1,6,ret,1,10,1,"['4', '1', '3', '2', '2', '1']","[30.4295376999944, 30.845549299992854, 31.061475900001824, 31.493518200004473, 31.66147120000096, 31.74154849999468]",3,6,# # # # # #,None
70,0,70,70,70,70,6,6,,,,2,FALSE,0,None,right,FALSE,2,1,0,enc,0,0,0,[],[],3,6,3 4 4 3 4 1,4
71,4.9519134,71,71,71,71,7,7,,,,2,TRUE,0.5,acc,right,TRUE,2,1,4,ret,1,4,0,"['1', '4', '4', '3', '4', '3']","[41.0535058999958, 41.949376200005645, 43.74951960000908, 43.86145570001099, 45.93344560000696, 46.00541929999599]",3,6,# # # # # #,None
72,0,72,72,72,72,8,8,,,,3,FALSE,0,None,right,FALSE,2,1,0,enc,0,0,1,[],[],3,6,1 2 2 4 4 3,6
73,2.7600837,73,73,73,73,9,9,,,,3,TRUE,0.5,acc,right,TRUE,2,1,5,ret,1,5,1,"['1', '1', '2', '4', '4', '3']","[52.83732459999737, 53.0214760999952, 53.173533499997575, 55.269453199987765, 55.44542380000348, 55.597408300003735]",3,6,# # # # # #,None
74,0,74,74,74,74,10,10,,,,2,FALSE,0,None,right,FALSE,2,1,0,enc,0,0,0,[],[],3,6,4 4 3 2 3 3,4
75,5.2879086,75,75,75,75,11,11,,,,2,TRUE,0.5,acc,right,TRUE,2,1,4,ret,1,4,0,"['3', '3', '2', '2', '4', '3']","[65.46949170000153, 65.66141309999512, 68.10941360000288, 68.30143779999344, 70.67751899998984, 70.75740030000452]",3,6,# # # # # #,None
76,0,76,76,76,76,12,12,,,,3,FALSE,0,None,right,FALSE,2,1,0,enc,0,0,0,[],[],3,6,2 4 3 2 2 4,6
77,5.2639864,77,77,77,77,13,13,,,,3,TRUE,0.5,acc,right,FALSE,2,1,6,ret,1,10,0,"['4', '2', '2', '3', '4', '2']","[78.49350889999187, 78.80570850000367, 78.99746700000833, 81.38950489999843, 82.67745399998967, 83.7574953000003]",3,6,# # # # # #,None
78,0,78,78,78,78,14,14,,,,2,FALSE,0,None,right,FALSE,2,1,0,enc,0,0,0,[],[],3,6,2 3 4 4 1 2,4
79,3.4079142,79,79,79,79,15,15,,,,2,TRUE,0.5,acc,right,FALSE,2,1,6,ret,1,10,0,"['2', '1', '4', '4', '3', '2']","[92.65354040000238, 92.75752929999726, 94.19745919998968, 94.38933070001076, 96.01340170000913, 96.06145459998515]",3,6,# # # # # #,None
80,0,80,80,80,80,16,16,,,,3,FALSE,0,None,right,FALSE,2,1,0,enc,0,0,1,[],[],3,6,2 1 1 2 4 1,6
81,1.8965314,81,81,81,81,17,17,,,,3,TRUE,0.5,acc,right,FALSE,2,1,6,ret,1,10,1,"['2', '1', '1', '2', '4', '1']","[102.96555100000114, 103.18945919998805, 103.36544389999472, 104.08551750000333, 104.72550719999708, 104.86208240000997]",3,6,# # # # # #,None
82,0,82,82,82,82,18,18,,,,3,FALSE,0,None,right,FALSE,2,1,0,enc,0,0,0,[],[],3,6,3 2 1 1 3 2,6
83,6.663855,83,83,83,83,19,19,,,,3,TRUE,0.5,acc,right,TRUE,2,1,4,ret,1,4,0,"['2', '3', '1', '1', '3', '2']","[112.4695522999973, 113.34174840000924, 113.52537879999727, 116.8774553000112, 119.0133746000065, 119.1334072999889]",3,6,# # # # # #,None
84,0,84,84,84,84,20,20,,,,2,FALSE,0,None,right,FALSE,2,1,0,enc,0,0,1,[],[],3,6,1 4 1 4 2 1,4
85,1.3840661,85,85,85,85,21,21,,,,2,TRUE,0.5,acc,right,FALSE,2,1,6,ret,1,10,1,"['1', '4', '1', '4', '2', '1']","[127.71751190000214, 127.99745500000427, 128.2855683999951, 128.46144159999676, 129.00536449998617, 129.1015780000016]",3,6,# # # # # #,None
86,0,86,86,86,86,22,22,,,,2,FALSE,0,None,right,FALSE,2,1,0,enc,0,0,1,[],[],3,6,1 3 2 1 1 3,4
87,1.2239611,87,87,87,87,23,23,,,,2,TRUE,0.5,acc,right,FALSE,2,1,6,ret,1,10,1,"['1', '3', '2', '1', '1', '3']","[137.69346320000477, 137.94148209999548, 138.36542379998718, 138.48549379999167, 138.8214372000075, 138.91742429998703]",3,6,# # # # # #,None
88,0,88,88,88,0,0,,,,,2,FALSE,0,None,right,FALSE,2,1,0,enc,0,0,1,[],[],4,6,4 4 1 3 2 2,4
89,2.0639794,89,89,89,1,1,,,,,2,TRUE,0.5,acc,right,FALSE,2,1,6,ret,1,10,1,"['4', '4', '1', '3', '2', '2']","[7.164542599988636, 7.396504400006961, 7.756533400010085, 7.908604399999604, 9.02852009999333, 9.228521999990335]",4,6,# # # # # #,None
90,0,90,90,90,2,2,,,,,2,FALSE,0,None,right,FALSE,2,1,0,enc,0,0,0,[],[],4,6,3 2 1 3 4 3,4
91,5.8960581,91,91,91,3,3,,,,,2,TRUE,0.5,acc,right,FALSE,2,1,6,ret,1,10,0,"['3', '4', '3', '1', '2', '3']","[19.140486999996938, 19.34864579999703, 23.364583499991568, 23.469044600002235, 24.98854590000701, 25.0365451000107]",4,6,# # # # # #,None
92,0,92,92,92,4,4,,,,,3,FALSE,0,None,right,FALSE,2,1,0,enc,0,0,0,[],[],4,6,2 3 2 3 1 2,6
93,3.8155353,93,93,93,5,5,,,,,3,TRUE,0.5,acc,right,FALSE,2,1,6,ret,1,10,0,"['2', '1', '3', '2', '3', '2']","[33.37307880001026, 33.49236510001356, 33.68449869999313, 36.80456580000464, 37.01238850000664, 37.18861410001409]",4,6,# # # # # #,None
94,0,94,94,94,6,6,,,,,3,FALSE,0,None,right,FALSE,2,1,0,enc,0,0,1,[],[],4,6,4 4 4 2 2 1,6
95,1.5519433,95,95,95,7,7,,,,,3,TRUE,0.5,acc,right,FALSE,2,1,6,ret,1,10,1,"['4', '4', '4', '2', '2', '1']","[43.652554500004044, 43.86063800001284, 44.06054810000933, 44.92456129999482, 45.10051729998668, 45.2044978000049]",4,6,# # # # # #,None
96,0,96,96,96,8,8,,,,,2,FALSE,0,None,right,FALSE,2,1,0,enc,0,0,1,[],[],4,6,3 1 4 3 4 1,4
97,5.0319367,97,97,97,9,9,,,,,2,TRUE,0.5,acc,right,FALSE,2,1,6,ret,1,10,1,"['3', '1', '4', '3', '4', '1']","[54.132579299999634, 54.260516899987124, 56.64455779999844, 56.68455740000354, 59.08462650000001, 59.16451599998982]",4,6,# # # # # #,None
98,0,98,98,98,10,10,,,,,3,FALSE,0,None,right,FALSE,2,1,0,enc,0,0,1,[],[],4,6,3 1 4 2 4 3,6
99,1.7598954,99,99,99,11,11,,,,,3,TRUE,0.5,acc,right,FALSE,2,1,6,ret,1,10,1,"['3', '1', '4', '2', '4', '3']","[66.16453750000801, 66.27659950000816, 66.49254800000926, 67.18066770001315, 67.38845269999001, 67.92443290000665]",4,6,# # # # # #,None
100,0,100,100,100,12,12,,,,,2,FALSE,0,None,right,FALSE,2,1,0,enc,0,0,0,[],[],4,6,2 1 4 1 4 4,4
101,7.4561835,101,101,101,13,13,,,,,2,TRUE,0.5,acc,right,TRUE,2,1,5,ret,1,5,0,"['4', '4', '1', '4', '1', '3']","[76.36457090001204, 76.56459659998654, 80.07657219999237, 80.41251819999889, 83.54851829999825, 83.8207543999888]",4,6,# # # # # #,None
102,0,102,102,102,14,14,,,,,3,FALSE,0,None,right,FALSE,2,1,0,enc,0,0,0,[],[],4,6,4 4 4 2 2 3,6
103,1.5361381,103,103,103,15,15,,,,,3,TRUE,0.5,acc,right,FALSE,2,1,6,ret,1,10,0,"['3', '2', '2', '4', '4', '4']","[91.6044172999973, 91.9325347999984, 92.11651059999713, 92.78850059999968, 92.98054670001147, 93.1405553999939]",4,6,# # # # # #,None
104,0,104,104,104,16,16,,,,,2,FALSE,0,None,right,FALSE,2,1,0,enc,0,0,1,[],[],4,6,4 2 3 2 4 3,4
105,3.7365749,105,105,105,17,17,,,,,2,TRUE,0.5,acc,right,TRUE,2,1,5,ret,1,5,1,"['4', '2', '3', '2', '3', '3']","[103.4765519000066, 103.7245200999896, 105.2125134000089, 105.30046229998698, 106.42054869999993, 107.21312679999392]",4,6,# # # # # #,None
106,0,106,106,106,18,18,,,,,2,FALSE,0,None,right,FALSE,2,1,0,enc,0,0,0,[],[],4,6,4 4 2 3 3 4,4
107,5.0722774,107,107,107,19,19,,,,,2,TRUE,0.5,acc,right,TRUE,2,1,3,ret,1,3,0,"['4', '3', '4', '4', '4', '3']","[116.94838640000671, 117.20451320000575, 118.94055259999004, 119.1725940000033, 121.78052279999247, 122.02066380000906]",4,6,# # # # # #,None
108,0,108,108,108,20,20,,,,,3,FALSE,0,None,right,FALSE,2,1,0,enc,0,0,1,[],[],4,6,3 3 3 1 1 2,6
109,0.99208,109,109,109,21,21,,,,,3,TRUE,0.5,acc,right,FALSE,2,1,6,ret,1,10,1,"['3', '3', '3', '1', '1', '2']","[128.86054739999236, 129.0764965999988, 129.26848739999696, 129.57289889999083, 129.75650990000577, 129.8526273999887]",4,6,# # # # # #,None
110,0,110,110,110,22,22,,,,,3,FALSE,0,None,right,FALSE,2,1,0,enc,0,0,0,[],[],4,6,1 4 3 2 2 1,6
111,3.663966,111,111,111,23,23,,,,,3,TRUE,0.5,acc,right,FALSE,2,1,6,ret,1,10,0,"['1', '2', '2', '3', '4', '1']","[137.52458940001088, 137.76446690000012, 137.9325373999891, 140.6205406000081, 140.8284990999964, 141.18855540000368]",4,6,# # # # # #,None
112,0,112,112,0,0,,,,,,3,FALSE,0,None,right,FALSE,2,1,0,enc,0,0,1,[],[],5,6,4 3 1 1 1 1,6
113,1.0638174,113,113,1,1,,,,,,3,TRUE,0.5,acc,right,FALSE,2,1,6,ret,1,10,1,"['4', '3', '1', '1', '1', '1']","[5.251908400008688, 5.523920300009195, 5.707804500008933, 6.019744899997022, 6.171676800004207, 6.3157257999992]",5,6,# # # # # #,None
114,0,114,114,2,2,,,,,,3,FALSE,0,None,right,FALSE,2,1,0,enc,0,0,1,[],[],5,6,2 4 2 3 2 4,6
115,2.4800773,115,115,3,3,,,,,,3,TRUE,0.5,acc,right,TRUE,2,1,4,ret,1,4,1,"['2', '4', '2', '3', '4', '2']","[13.651749000011478, 13.92392280002241, 14.363888599997154, 15.627860800013877, 15.84381449999637, 16.131826299999375]",5,6,# # # # # #,None
116,0,116,116,4,4,,,,,,2,FALSE,0,None,right,FALSE,2,1,0,enc,0,0,1,[],[],5,6,4 3 3 2 2 2,4
117,2.5760085,117,117,5,5,,,,,,2,TRUE,0.5,acc,right,FALSE,2,1,6,ret,1,10,1,"['4', '3', '3', '2', '2', '2']","[25.371845000016037, 25.635876400017878, 26.995891700003995, 27.227797100000316, 27.763843499997165, 27.947853500023484]",5,6,# # # # # #,None
118,0,118,118,6,6,,,,,,2,FALSE,0,None,right,FALSE,2,1,0,enc,0,0,1,[],[],5,6,2 3 1 3 2 3,4
119,0.8640742,119,119,7,7,,,,,,2,TRUE,0.5,acc,right,FALSE,2,1,6,ret,1,10,1,"['2', '3', '1', '3', '2', '3']","[36.531883100018604, 36.57187620000332, 36.867813300021226, 36.95572660001926, 37.331905600003665, 37.39595730000292]",5,6,# # # # # #,None
120,0,120,120,8,8,,,,,,2,FALSE,0,None,right,FALSE,2,1,0,enc,0,0,0,[],[],5,6,3 2 3 1 3 4,4
121,4.0400433,121,121,9,9,,,,,,2,TRUE,0.5,acc,right,FALSE,2,1,6,ret,1,10,0,"['4', '3', '1', '3', '2', '3']","[47.18769420002354, 47.41183810000075, 49.403854000003776, 49.55565870000282, 51.15586810000241, 51.227737500012154]",5,6,# # # # # #,None
122,0,122,122,10,10,,,,,,3,FALSE,0,None,right,FALSE,2,1,0,enc,0,0,0,[],[],5,6,1 3 1 4 1 1,6
123,4.4723301,123,123,11,11,,,,,,3,TRUE,0.5,acc,right,FALSE,2,1,6,ret,1,10,0,"['1', '1', '4', '1', '3', '1']","[58.291928200022085, 58.93182019999949, 60.65173820001655, 62.55584740001359, 62.65182640001876, 62.76425830001244]",5,6,# # # # # #,None
124,0,124,124,12,12,,,,,,3,FALSE,0,None,right,FALSE,2,1,0,enc,0,0,0,[],[],5,6,3 3 4 4 1 1,6
125,4.1362204,125,125,13,13,,,,,,3,TRUE,0.5,acc,right,TRUE,2,1,4,ret,1,4,0,"['1', '1', '4', '1', '1', '3']","[69.57969790001516, 70.12393530001282, 70.82781340001384, 72.64382379999734, 72.83578370002215, 73.71591830000398]",5,6,# # # # # #,None
126,0,126,126,14,14,,,,,,2,FALSE,0,None,right,FALSE,2,1,0,enc,0,0,0,[],[],5,6,1 4 1 2 4 4,4
127,3.1919754,127,127,15,15,,,,,,2,TRUE,0.5,acc,right,TRUE,2,1,5,ret,1,5,0,"['4', '4', '2', '1', '3', '1']","[82.43584990000818, 82.61183790001087, 84.49968259999878, 84.57166940000025, 85.58031620000838, 85.6278253000055]",5,6,# # # # # #,None
128,0,128,128,16,16,,,,,,2,FALSE,0,None,right,FALSE,2,1,0,enc,0,0,1,[],[],5,6,1 2 2 1 4 2,4
129,1.8799407,129,129,17,17,,,,,,2,TRUE,0.5,acc,right,FALSE,2,1,6,ret,1,10,1,"['1', '2', '2', '1', '4', '2']","[94.7078747000196, 94.92367479999666, 95.26784929999849, 95.34780250000767, 96.45185370001127, 96.58781540000928]",5,6,# # # # # #,None
130,0,130,130,18,18,,,,,,3,FALSE,0,None,right,FALSE,2,1,0,enc,0,0,1,[],[],5,6,2 2 1 3 1 3,6
131,1.4959168,131,131,19,19,,,,,,3,TRUE,0.5,acc,right,FALSE,2,1,6,ret,1,10,1,"['2', '2', '1', '3', '1', '3']","[103.58780900001875, 103.7799675000133, 103.91575909999665, 104.80385600001318, 104.96382090001134, 105.08372580001014]",5,6,# # # # # #,None
132,0,132,132,20,20,,,,,,2,FALSE,0,None,right,FALSE,2,1,0,enc,0,0,0,[],[],5,6,3 4 2 3 1 4,4
133,7.455904,133,133,21,21,,,,,,2,TRUE,0.5,acc,right,TRUE,2,1,4,ret,1,4,0,"['4', '1', '4', '2', '4', '2']","[115.46784950001165, 115.54766430001473, 120.3878274000017, 121.01983130001463, 122.85190510001848, 122.92375350001385]",5,6,# # # # # #,None
134,0,134,134,22,22,,,,,,3,FALSE,0,None,right,FALSE,2,1,0,enc,0,0,0,[],[],5,6,2 3 3 3 4 2,6
135,4.8639648,135,135,23,23,,,,,,3,TRUE,0.5,acc,right,TRUE,2,1,3,ret,1,3,0,"['2', '4', '3', '4', '4', '3']","[129.9798496000003, 130.61172040001838, 131.08383600000525, 134.15584990000934, 134.39582830001018, 134.8438143999956]",5,6,# # # # # #,None
136,0,136,0,0,,,,,,,2,FALSE,0,None,right,FALSE,2,1,0,enc,0,0,1,[],[],6,6,2 3 1 1 2 3,4
137,0.9040161,137,1,1,,,,,,,2,TRUE,0.5,acc,right,FALSE,2,1,6,ret,1,10,1,"['2', '3', '1', '1', '2', '3']","[7.251318499998888, 7.3152266000106465, 7.75523599999724, 7.915395599993644, 8.123374000017066, 8.155334600014612]",6,6,# # # # # #,None
138,0,138,2,2,,,,,,,3,FALSE,0,None,right,FALSE,2,1,0,enc,0,0,1,[],[],6,6,2 3 3 4 2 2,6
139,2.144412,139,3,3,,,,,,,3,TRUE,0.5,acc,right,FALSE,2,1,6,ret,1,10,1,"['2', '3', '3', '4', '2', '2']","[15.019174899993232, 15.067288899997948, 15.659262500004843, 16.75522940000519, 17.00376310001593, 17.163586900016526]",6,6,# # # # # #,None
140,0,140,4,4,,,,,,,2,FALSE,0,None,right,FALSE,2,1,0,enc,0,0,0,[],[],6,6,3 1 2 4 4 4,4
141,5.1675185,141,5,5,,,,,,,2,TRUE,0.5,acc,right,FALSE,2,1,6,ret,1,10,0,"['4', '4', '4', '2', '1', '3']","[25.83584109999356, 26.02728870001738, 29.075240400008624, 29.307234700012486, 30.915216399997007, 31.003359599999385]",6,6,# # # # # #,None
142,0,142,6,6,,,,,,,3,FALSE,0,None,right,FALSE,2,1,0,enc,0,0,1,[],[],6,6,3 3 1 3 2 2,6
143,1.9040505,143,7,7,,,,,,,3,TRUE,0.5,acc,right,FALSE,2,1,6,ret,1,10,1,"['3', '3', '1', '3', '2', '2']","[37.92335060000187, 38.107121900015045, 38.26739720001933, 39.483277599996654, 39.67528280001716, 39.827401100017596]",6,6,# # # # # #,None
144,0,144,8,8,,,,,,,2,FALSE,0,None,right,FALSE,2,1,0,enc,0,0,1,[],[],6,6,1 2 2 2 4 1,4
145,1.9040312,145,9,9,,,,,,,2,TRUE,0.5,acc,right,FALSE,2,1,6,ret,1,10,1,"['1', '2', '2', '2', '4', '1']","[48.547264599998016, 48.61125610000454, 49.58725609999965, 49.78724540001713, 50.3392686000152, 50.4512958000123]",6,6,# # # # # #,None
146,0,146,10,10,,,,,,,3,FALSE,0,None,right,FALSE,2,1,0,enc,0,0,1,[],[],6,6,3 1 4 4 2 4,6
147,3.9923874,147,11,11,,,,,,,3,TRUE,0.5,acc,right,TRUE,2,1,5,ret,1,5,1,"['1', '1', '4', '4', '2', '4']","[58.52326610000455, 60.17124930000864, 60.66728230001172, 62.15527760001714, 62.37121830001706, 62.515653500013286]",6,6,# # # # # #,None
148,0,148,12,12,,,,,,,3,FALSE,0,None,right,FALSE,2,1,0,enc,0,0,0,[],[],6,6,3 4 1 3 4 2,6
149,4.91198,149,13,13,,,,,,,3,TRUE,0.5,acc,right,FALSE,2,1,6,ret,1,10,0,"['2', '4', '3', '1', '4', '3']","[70.5712809000106, 71.45931850001216, 71.72330010001315, 73.71518470000592, 75.17136340000434, 75.48326090001501]",6,6,# # # # # #,None
150,0,150,14,14,,,,,,,3,FALSE,0,None,right,FALSE,2,1,0,enc,0,0,0,[],[],6,6,1 2 1 3 1 1,6
151,3.3679187,151,15,15,,,,,,,3,TRUE,0.5,acc,right,FALSE,2,1,6,ret,1,10,0,"['1', '1', '3', '1', '2', '1']","[82.45130230000359, 82.6352603000123, 83.65924080001423, 85.5312613999995, 85.72319910000078, 85.81922100001248]",6,6,# # # # # #,None
152,0,152,16,16,,,,,,,2,FALSE,0,None,right,FALSE,2,1,0,enc,0,0,1,[],[],6,6,2 1 4 3 3 2,4
153,1.8479199,153,17,17,,,,,,,2,TRUE,0.5,acc,right,FALSE,2,1,6,ret,1,10,1,"['2', '1', '4', '3', '3', '2']","[94.77126569999382, 94.87528350000503, 95.67528200001107, 95.85927400001674, 96.53133840000373, 96.61918559999322]",6,6,# # # # # #,None
154,0,154,18,18,,,,,,,2,FALSE,0,None,right,FALSE,2,1,0,enc,0,0,0,[],[],6,6,1 4 4 1 2 3,4
155,3.3761141,155,19,19,,,,,,,2,TRUE,0.5,acc,right,FALSE,2,1,6,ret,1,10,0,"['3', '2', '1', '4', '4', '1']","[105.83527090001735, 105.92326130002039, 108.09930100000929, 108.851233399997, 109.05123010001262, 109.21138500000234]",6,6,# # # # # #,None
156,0,156,20,20,,,,,,,2,FALSE,0,None,right,FALSE,2,1,0,enc,0,0,0,[],[],6,6,2 1 2 3 4 4,4
157,3.0960008,157,21,21,,,,,,,2,TRUE,0.5,acc,right,FALSE,2,1,6,ret,1,10,0,"['4', '4', '3', '2', '1', '2']","[117.87526640002034, 118.07529110001633, 119.69924070002162, 119.76317429999472, 120.91525650001131, 120.97126720001688]",6,6,# # # # # #,None
158,0,158,22,22,,,,,,,3,FALSE,0,None,right,FALSE,2,1,0,enc,0,0,0,[],[],6,6,3 1 3 4 2 3,6
159,7.8641413,159,23,23,,,,,,,3,TRUE,0.5,acc,right,TRUE,2,1,3,ret,1,3,0,"['4', '1', '3', '3', '1', '3']","[128.81134569999995, 128.97960180000518, 130.22718529999838, 136.40382969999337, 136.54770490000374, 136.67548700000043]",6,6,# # # # # #,None
160,0,0,0,,,,,,,,2,FALSE,0,None,right,FALSE,2,1,0,enc,0,0,1,[],[],7,6,2 4 4 2 1 3,4
161,5.1359711,1,1,,,,,,,,2,TRUE,0.5,acc,right,FALSE,2,1,6,ret,1,10,1,"['2', '4', '4', '2', '1', '3']","[7.498973599984311, 7.9150261000031605, 10.315007199998945, 10.547013200004585, 12.578817100002198, 12.634944699995685]",7,6,# # # # # #,None
162,0,2,2,,,,,,,,3,FALSE,0,None,right,FALSE,2,1,0,enc,0,0,1,[],[],7,6,2 4 3 1 4 4,6
163,2.2399636,3,3,,,,,,,,3,TRUE,0.5,acc,right,FALSE,2,1,6,ret,1,10,1,"['2', '4', '3', '1', '4', '4']","[19.499006400001235, 20.283041299990145, 20.49895559999277, 21.299002899992047, 21.578814799984684, 21.738970000005793]",7,6,# # # # # #,None
164,0,4,4,,,,,,,,3,FALSE,0,None,right,FALSE,2,1,0,enc,0,0,1,[],[],7,6,3 3 4 4 4 1,6
165,2.2399216,5,5,,,,,,,,3,TRUE,0.5,acc,right,FALSE,2,1,6,ret,1,10,1,"['3', '3', '4', '4', '4', '1']","[28.810994400002528, 29.074943299987353, 30.07499170000665, 30.746963699988555, 30.922959799994715, 31.05091600000742]",7,6,# # # # # #,None
166,0,6,6,,,,,,,,2,FALSE,0,None,right,FALSE,2,1,0,enc,0,0,1,[],[],7,6,4 1 2 3 3 2,4
167,2.2077877,7,7,,,,,,,,2,TRUE,0.5,acc,right,FALSE,2,1,6,ret,1,10,1,"['4', '1', '2', '3', '3', '2']","[40.363091100007296, 40.563071999989916, 41.93107630001032, 42.09099399999832, 42.50694570000633, 42.57087880000472]",7,6,# # # # # #,None
168,0,8,8,,,,,,,,3,FALSE,0,None,right,FALSE,2,1,0,enc,0,0,0,[],[],7,6,3 4 2 1 2 2,6
169,4.3679841,9,9,,,,,,,,3,TRUE,0.5,acc,right,TRUE,2,1,5,ret,1,5,0,"['2', '2', '1', '2', '4', '2']","[49.93104749999475, 50.106904199987184, 50.24290290000499, 53.51499419999891, 54.123185100004775, 54.299031600006856]",7,6,# # # # # #,None
170,0,10,10,,,,,,,,2,FALSE,0,None,right,FALSE,2,1,0,enc,0,0,0,[],[],7,6,4 4 3 4 3 3,4
171,5.4720046,11,11,,,,,,,,2,TRUE,0.5,acc,right,FALSE,2,1,6,ret,1,10,0,"['3', '3', '4', '3', '4', '4']","[62.938951099989936, 63.13092309999047, 66.33081640000455, 66.7149619999982, 68.24298419998377, 68.4109557000047]",7,6,# # # # # #,None
172,0,12,12,,,,,,,,2,FALSE,0,None,right,FALSE,2,1,0,enc,0,0,0,[],[],7,6,4 1 4 1 4 2,4
173,3.0078946,13,13,,,,,,,,2,TRUE,0.5,acc,right,FALSE,2,1,6,ret,1,10,0,"['2', '4', '1', '4', '1', '4']","[77.08305560000008, 77.25103200000012, 78.72290910000447, 78.80296070000622, 80.01893039999413, 80.09095019998495]",7,6,# # # # # #,None
174,0,14,14,,,,,,,,3,FALSE,0,None,right,FALSE,2,1,0,enc,0,0,1,[],[],7,6,2 1 4 3 1 2,6
175,1.3679032,15,15,,,,,,,,3,TRUE,0.5,acc,right,FALSE,2,1,6,ret,1,10,1,"['2', '1', '4', '3', '1', '2']","[87.62698050000472, 87.75477669999236, 87.99496919999365, 88.7309385999979, 88.89936849998776, 88.99488369998289]",7,6,# # # # # #,None
176,0,16,16,,,,,,,,2,FALSE,0,None,right,FALSE,2,1,0,enc,0,0,0,[],[],7,6,4 4 4 2 4 2,4
177,2.1920464,17,17,,,,,,,,2,TRUE,0.5,acc,right,FALSE,2,1,6,ret,1,10,0,"['2', '4', '2', '4', '4', '4']","[98.0269818000088, 98.15497020000475, 98.73892979999073, 98.85893919999944, 100.05157079998753, 100.21902819999377]",7,6,# # # # # #,None
178,0,18,18,,,,,,,,3,FALSE,0,None,right,FALSE,2,1,0,enc,0,0,0,[],[],7,6,3 1 4 4 2 4,6
179,3.6481281,19,19,,,,,,,,3,TRUE,0.5,acc,right,TRUE,2,1,5,ret,1,5,0,"['4', '2', '4', '2', '1', '3']","[110.12282349998713, 110.32292559999041, 110.47596710000653, 113.13096109998878, 113.29096369998297, 113.77095159998862]",7,6,# # # # # #,None
180,0,20,20,,,,,,,,3,FALSE,0,None,right,FALSE,2,1,0,enc,0,0,0,[],[],7,6,1 4 2 2 3 4,6
181,3.5759456,21,21,,,,,,,,3,TRUE,0.5,acc,right,TRUE,2,1,4,ret,1,4,0,"['4', '3', '2', '2', '1', '4']","[121.75505340000382, 121.89903329999652, 122.08297769998899, 124.0827786999871, 124.61889419998624, 125.33099899999797]",7,6,# # # # # #,None
182,0,22,22,,,,,,,,2,FALSE,0,None,right,FALSE,2,1,0,enc,0,0,1,[],[],7,6,1 1 2 1 1 3,4
183,1.1200647,23,23,,,,,,,,2,TRUE,0.5,acc,right,FALSE,2,1,6,ret,1,10,1,"['1', '1', '2', '1', '1', '3']","[133.8749506000022, 134.0829393999884, 134.33092449998367, 134.43499670000165, 134.8911031000025, 134.99501529999543]",7,6,# # # # # #,None
0,0,0,,,,,,,,,2,FALSE,0,None,right,FALSE,2,1,0,enc,0,0,1,[],[],8,6,4 2 3 2 2 2,4
1,1.6640169,1,,,,,,,,,2,TRUE,0.5,acc,right,FALSE,2,1,6,ret,1,10,1,"['4', '2', '3', '2', '2', '2']","[8.398175500013167, 8.662114700011443, 9.34227120000287, 9.486134200007655, 9.918179400003282, 10.062192400015192]",8,6,# # # # # #,None
2,0,2,,,,,,,,,2,FALSE,0,None,right,FALSE,2,1,0,enc,0,0,1,[],[],8,6,1 1 1 3 1 4,4
3,1.5039043,3,,,,,,,,,2,TRUE,0.5,acc,right,FALSE,2,1,6,ret,1,10,1,"['1', '1', '1', '3', '1', '4']","[18.270229800022207, 18.478145300003234, 18.966209400008665, 19.238351200008765, 19.574142099998426, 19.77413410000736]",8,6,# # # # # #,None
4,0,4,,,,,,,,,2,FALSE,0,None,right,FALSE,2,1,0,enc,0,0,0,[],[],8,6,2 1 2 1 3 4,4
5,1.7839262,5,,,,,,,,,2,TRUE,0.5,acc,right,FALSE,2,1,6,ret,1,10,0,"['4', '3', '1', '2', '1', '2']","[28.782209400000283, 29.022154900012538, 30.230193299998064, 30.302068900025915, 30.51019030000316, 30.56613560000551]",8,6,# # # # # #,None
6,0,6,,,,,,,,,2,FALSE,0,None,right,FALSE,2,1,0,enc,0,0,1,[],[],8,6,1 3 1 4 2 3,4
7,1.1760335,7,,,,,,,,,2,TRUE,0.5,acc,right,FALSE,2,1,6,ret,1,10,1,"['1', '3', '1', '4', '2', '3']","[39.22215100002359, 39.43816109999898, 39.71002620001673, 39.90220490001957, 40.35817540000426, 40.39818450002349]",8,6,# # # # # #,None
8,0,8,,,,,,,,,3,FALSE,0,None,right,FALSE,2,1,0,enc,0,0,1,[],[],8,6,1 4 3 3 2 2,6
9,1.6639591,9,,,,,,,,,3,TRUE,0.5,acc,right,FALSE,2,1,6,ret,1,10,1,"['1', '4', '3', '3', '2', '2']","[47.09418290000758, 47.598066400008975, 47.838001500000246, 48.34211120000691, 48.5899801000196, 48.758142000006046]",8,6,# # # # # #,None
10,0,10,,,,,,,,,2,FALSE,0,None,right,FALSE,2,1,0,enc,0,0,0,[],[],8,6,4 3 3 4 4 1,4
11,3.7360097,11,,,,,,,,,2,TRUE,0.5,acc,right,FALSE,2,1,6,ret,1,10,0,"['1', '4', '4', '3', '3', '4']","[57.29413449999993, 57.42214070001501, 60.254159400006756, 60.702268200024264, 60.870099200023105, 61.030144200020004]",8,6,# # # # # #,None
12,0,12,,,,,,,,,2,FALSE,0,None,right,FALSE,2,1,0,enc,0,0,0,[],[],8,6,3 1 3 2 4 2,4
13,7.3041409,13,,,,,,,,,2,TRUE,0.5,acc,right,TRUE,2,1,5,ret,1,5,0,"['2', '4', '2', '4', '1', '3']","[70.39008100001956, 70.61412690000725, 73.57416100002592, 73.72611640000832, 77.61426480000955, 77.69422190001933]",8,6,# # # # # #,None
14,0,14,,,,,,,,,3,FALSE,0,None,right,FALSE,2,1,0,enc,0,0,1,[],[],8,6,1 3 2 3 3 3,6
15,1.0719272,15,,,,,,,,,3,TRUE,0.5,acc,right,FALSE,2,1,6,ret,1,10,1,"['1', '3', '2', '3', '3', '3']","[84.34221790000447, 84.54195830001845, 84.60611590000917, 85.10219220002182, 85.26996470001177, 85.41414510001778]",8,6,# # # # # #,None
16,0,16,,,,,,,,,3,FALSE,0,None,right,FALSE,2,1,0,enc,0,0,1,[],[],8,6,4 2 4 4 2 4,6
17,1.2800216,17,,,,,,,,,3,TRUE,0.5,acc,right,FALSE,2,1,6,ret,1,10,1,"['4', '2', '4', '4', '2', '4']","[92.31013920000987, 92.53415870000026, 92.71013820002554, 93.31816450000042, 93.49411420000251, 93.59016079999856]",8,6,# # # # # #,None
18,0,18,,,,,,,,,3,FALSE,0,None,right,FALSE,2,1,0,enc,0,0,0,[],[],8,6,1 2 2 3 1 1,6
19,4.4640394,19,,,,,,,,,3,TRUE,0.5,acc,right,FALSE,2,1,6,ret,1,10,0,"['1', '1', '3', '2', '2', '1']","[100.14998539999942, 100.32615150001948, 101.50195570001961, 104.36614650001866, 104.52612790002604, 104.61402480001561]",8,6,# # # # # #,None
20,0,20,,,,,,,,,3,FALSE,0,None,right,FALSE,2,1,0,enc,0,0,0,[],[],8,6,2 3 1 1 3 4,6
21,4.7044127,21,,,,,,,,,3,TRUE,0.5,acc,right,FALSE,2,1,6,ret,1,10,0,"['4', '3', '1', '1', '3', '2']","[112.07822620001389, 112.38997290001134, 112.57404160001897, 114.65410860002157, 116.67798180002137, 116.78263890001108]",8,6,# # # # # #,None
22,0,22,,,,,,,,,3,FALSE,0,None,right,FALSE,2,1,0,enc,0,0,0,[],[],8,6,4 3 2 2 1 3,6
23,3.872047,23,,,,,,,,,3,TRUE,0.5,acc,right,FALSE,2,1,6,ret,1,10,0,"['3', '1', '2', '2', '3', '4']","[124.17410630002269, 124.33412680000765, 124.45410120001179, 127.67010050002136, 127.82210530000157, 128.04615330000524]",8,6,# # # # # #,None
