,Tn,MT,chunk,display_trial_feedback,feedback_dur,feedback_type,hand,is_error,item_dur,iti_dur,number_correct,phase,phase_type,points,recall_dir,response,response_time,run_number,seq_length,seq_str,trial_dur,P1,P2,P3,P4,P5,P6,IPI_0,IPI_1,IPI_2,IPI_3,IPI_4,IPI_5
0,0,0.0,3,False,0.0,None,right,False,2,1,0,enc,0,0,1,[],[],1,6,2 2 2 4 4 3,6,0.0,0.0,0.0,0.0,0.0,0.0,0,0.0,0.0,0.0,0.0,0.0
1,1,2.440051799989305,3,True,0.5,acc,right,False,2,1,6,ret,1,10,1,"['2', '2', '2', '4', '4', '3']","[6.4557695999974385, 6.631849700002931, 6.815754399984144, 8.199887199996738, 8.551852900011, 8.895821399986744]",1,6,# # # # # #,None,6.4557695999974385,6.631849700002931,6.815754399984144,8.199887199996738,8.551852900011,8.895821399986744,-0.04423040000256151,0.17608010000549257,0.18390469998121262,1.384132800012594,0.35196570001426153,0.34396849997574463
2,2,0.0,3,False,0.0,None,right,False,2,1,0,enc,0,0,1,[],[],1,6,1 3 1 3 1 2,6,0.0,0.0,0.0,0.0,0.0,0.0,0,0.0,0.0,0.0,0.0,0.0
3,3,2.304736199992476,3,True,0.5,acc,right,True,2,1,4,ret,1,4,1,"['1', '3', '1', '1', '3', '2']","[15.599640300002648, 15.911751400009962, 16.215636599983554, 16.991816599998856, 17.735944699990796, 17.904376499995124]",1,6,# # # # # #,None,15.599640300002648,15.911751400009962,16.215636599983554,16.991816599998856,17.735944699990796,17.904376499995124,0.20381890001590364,0.31211110000731423,0.30388519997359253,0.7761800000153016,0.74412809999194,0.16843180000432767
4,4,0.0,3,False,0.0,None,right,False,2,1,0,enc,0,0,0,[],[],1,6,4 1 4 3 4 3,6,0.0,0.0,0.0,0.0,0.0,0.0,0,0.0,0.0,0.0,0.0,0.0
5,5,4.631985200016062,3,True,0.5,acc,right,True,2,1,5,ret,1,5,0,"['3', '2', '3', '4', '1', '4']","[26.31186779998825, 27.015792899997905, 28.095625699992524, 29.839612000010675, 30.623792099999264, 30.94385300000431]",1,6,# # # # # #,None,26.31186779998825,27.015792899997905,28.095625699992524,29.839612000010675,30.623792099999264,30.94385300000431,1.9074912999931257,0.7039251000096556,1.0798327999946196,1.7439863000181504,0.7841800999885891,0.3200609000050463
6,6,0.0,2,False,0.0,None,right,False,2,1,0,enc,0,0,1,[],[],1,6,4 3 4 1 4 4,4,0.0,0.0,0.0,0.0,0.0,0.0,0,0.0,0.0,0.0,0.0,0.0
7,7,2.1599336999934167,2,True,0.5,acc,right,False,2,1,6,ret,1,10,1,"['4', '3', '4', '1', '4', '4']","[40.599839500006055, 41.2797838000115, 41.78381620001164, 42.199781600007555, 42.5038011999859, 42.75977319999947]",1,6,# # # # # #,None,40.599839500006055,41.2797838000115,41.78381620001164,42.199781600007555,42.5038011999859,42.75977319999947,3.1559865000017453,0.6799443000054453,0.5040324000001419,0.41596539999591187,0.3040195999783464,0.25597200001357123
8,8,0.0,2,False,0.0,None,right,False,2,1,0,enc,0,0,0,[],[],1,6,4 1 3 3 1 4,4,0.0,0.0,0.0,0.0,0.0,0.0,0,0.0,0.0,0.0,0.0,0.0
9,9,3.5438686000125017,2,True,0.5,acc,right,False,2,1,6,ret,1,10,0,"['4', '1', '3', '3', '1', '4']","[51.887994099990465, 52.2798666000017, 52.855879799986724, 53.18383819999872, 55.159919400000945, 55.43186270000297]",1,6,# # # # # #,None,51.887994099990465,52.2798666000017,52.855879799986724,53.18383819999872,55.159919400000945,55.43186270000297,2.6282208999909926,0.39187250001123175,0.5760131999850273,0.32795840001199394,1.976081200002227,0.2719433000020217
10,10,0.0,2,False,0.0,None,right,False,2,1,0,enc,0,0,0,[],[],1,6,1 3 4 2 2 2,4,0.0,0.0,0.0,0.0,0.0,0.0,0,0.0,0.0,0.0,0.0,0.0
11,11,4.791960799979279,2,True,0.5,acc,right,True,2,1,2,ret,1,2,0,"['2', '2', '3', '2', '1', '4']","[64.76782790001016, 65.02395709999837, 66.62404369999422, 66.975876099983, 69.15184790000785, 69.55978869998944]",1,6,# # # # # #,None,64.76782790001016,65.02395709999837,66.62404369999422,66.975876099983,69.15184790000785,69.55978869998944,2.8359652000071947,0.2561291999882087,1.6000865999958478,0.3518323999887798,2.175971800024854,0.4079407999815885
12,12,0.0,3,False,0.0,None,right,False,2,1,0,enc,0,0,0,[],[],1,6,4 1 1 1 4 3,6,0.0,0.0,0.0,0.0,0.0,0.0,0,0.0,0.0,0.0,0.0,0.0
13,13,5.240000799996778,3,True,0.5,acc,right,True,2,1,3,ret,1,3,0,"['3', '4', '1', '3', '2', '1']","[77.03983069999958, 77.79978400000255, 78.22393440001179, 79.84821520000696, 81.95192669998505, 82.27983149999636]",1,6,# # # # # #,None,77.03983069999958,77.79978400000255,78.22393440001179,79.84821520000696,81.95192669998505,82.27983149999636,0.980042000010144,0.7599533000029624,0.4241504000092391,1.6242807999951765,2.1037114999780897,0.3279048000113107
14,14,0.0,2,False,0.0,None,right,False,2,1,0,enc,0,0,1,[],[],1,6,1 2 3 4 3 1,4,0.0,0.0,0.0,0.0,0.0,0.0,0,0.0,0.0,0.0,0.0,0.0
15,15,1.4399466999748256,2,True,0.5,acc,right,False,2,1,6,ret,1,10,1,"['1', '2', '3', '4', '3', '1']","[91.13589060000959, 91.40790459999698, 91.65584920000401, 91.96793859999161, 92.27992679999443, 92.57583729998441]",1,6,# # # # # #,None,91.13589060000959,91.40790459999698,91.65584920000401,91.96793859999161,92.27992679999443,92.57583729998441,2.3560591000132263,0.2720139999873936,0.2479446000070311,0.3120893999875989,0.3119882000028156,0.2959104999899864
16,0,0.0,3,False,0.0,None,right,False,2,1,0,enc,0,0,1,[],[],1,6,4 2 2 1 1 2,6,0.0,0.0,0.0,0.0,0.0,0.0,0,0.0,0.0,0.0,0.0,0.0
17,1,1.4399294999893757,3,True,0.5,acc,right,False,2,1,6,ret,1,10,1,"['4', '2', '2', '1', '1', '2']","[5.244663999998011, 5.44451349999872, 5.644594999990659, 6.316580599988811, 6.516515399998752, 6.684593499987386]",1,6,# # # # # #,None,5.244663999998011,5.44451349999872,5.644594999990659,6.316580599988811,6.516515399998752,6.684593499987386,NaN,0.19984950000070967,0.20008149999193847,0.6719855999981519,0.19993480000994168,0.16807809998863377
18,2,0.0,3,False,0.0,None,right,False,2,1,0,enc,0,0,1,[],[],1,6,3 3 2 2 3 3,6,0.0,0.0,0.0,0.0,0.0,0.0,0,0.0,0.0,0.0,0.0,0.0
19,3,1.4640513999911493,3,True,0.5,acc,right,False,2,1,6,ret,1,10,1,"['3', '3', '2', '2', '3', '3']","[13.108541499997955, 13.292648000002373, 13.596485499991104, 14.220523900003172, 14.404563999996753, 14.572592899989104]",1,6,# # # # # #,None,13.108541499997955,13.292648000002373,13.596485499991104,14.220523900003172,14.404563999996753,14.572592899989104,-0.07605199998943135,0.1841065000044182,0.303837499988731,0.6240384000120685,0.18404009999358095,0.1680288999923505
20,4,0.0,2,False,0.0,None,right,False,2,1,0,enc,0,0,0,[],[],1,6,1 4 4 2 2 1,4,0.0,0.0,0.0,0.0,0.0,0.0,0,0.0,0.0,0.0,0.0,0.0
21,5,4.711864099983359,2,True,0.5,acc,right,True,2,1,2,ret,1,2,0,"['1', '2', '4', '2', '1', '2']","[23.900628800009144, 24.260592200007522, 25.96458430000348, 26.956555999990087, 28.332539900002303, 28.612492899992503]",1,6,# # # # # #,None,23.900628800009144,24.260592200007522,25.96458430000348,26.956555999990087,28.332539900002303,28.612492899992503,2.8280359000200406,0.359963399998378,1.7039920999959577,0.9919716999866068,1.3759839000122156,0.2799529999902006
22,6,0.0,3,False,0.0,None,right,False,2,1,0,enc,0,0,0,[],[],1,6,2 3 3 2 4 1,6,0.0,0.0,0.0,0.0,0.0,0.0,0,0.0,0.0,0.0,0.0,0.0
23,7,5.720091199997113,3,True,0.5,acc,right,True,2,1,3,ret,1,3,0,"['2', '4', '2', '3', '2', '1']","[35.13245309999911, 38.100535400008084, 38.52458070000284, 39.9244902000064, 40.492518599989126, 40.852544299996225]",1,6,# # # # # #,None,35.13245309999911,38.100535400008084,38.52458070000284,39.9244902000064,40.492518599989126,40.852544299996225,0.01996020000660792,2.968082300008973,0.42404529999475926,1.3999095000035595,0.5680283999827225,0.36002570000709966
24,8,0.0,2,False,0.0,None,right,False,2,1,0,enc,0,0,0,[],[],1,6,4 3 2 1 3 4,4,0.0,0.0,0.0,0.0,0.0,0.0,0,0.0,0.0,0.0,0.0,0.0
25,9,6.3202605000115,2,True,0.5,acc,right,True,2,1,2,ret,1,2,0,"['4', '3', '4', '3', '2', '1']","[50.46838239999488, 51.076538399996934, 54.24445060000289, 55.20453859999543, 56.42855499999132, 56.78864290000638]",1,6,# # # # # #,None,50.46838239999488,51.076538399996934,54.24445060000289,55.20453859999543,56.42855499999132,56.78864290000638,3.115838099998655,0.6081560000020545,3.167912200005958,0.9600879999925382,1.2240163999958895,0.36008790001505986
26,10,0.0,2,False,0.0,None,right,False,2,1,0,enc,0,0,1,[],[],1,6,4 3 3 1 1 2,4,0.0,0.0,0.0,0.0,0.0,0.0,0,0.0,0.0,0.0,0.0,0.0
27,11,3.7438492999935984,2,True,0.5,acc,right,True,2,1,3,ret,1,3,1,"['4', '3', '2', '1', '4', '1']","[65.65264210000169, 66.44451259999187, 67.1325266000058, 67.67659049999202, 68.85253390000435, 69.39649139999528]",1,6,# # # # # #,None,65.65264210000169,66.44451259999187,67.1325266000058,67.67659049999202,68.85253390000435,69.39649139999528,2.3639991999953054,0.791870499990182,0.6880140000139363,0.5440638999862131,1.1759434000123292,0.5439574999909382
28,12,0.0,3,False,0.0,None,right,False,2,1,0,enc,0,0,0,[],[],1,6,2 3 4 2 2 1,6,0.0,0.0,0.0,0.0,0.0,0.0,0,0.0,0.0,0.0,0.0,0.0
29,13,3.1360838999971747,3,True,0.5,acc,right,False,2,1,6,ret,1,10,0,"['1', '2', '2', '4', '3', '2']","[76.81241340000997, 77.10054340001079, 77.44452299998375, 79.48452769999858, 79.73253010000917, 79.94849730000715]",1,6,# # # # # #,None,76.81241340000997,77.10054340001079,77.44452299998375,79.48452769999858,79.73253010000917,79.94849730000715,0.9159220000146888,0.28813000000081956,0.343979599972954,2.0400047000148334,0.24800240001059137,0.21596719999797642
30,14,0.0,2,False,0.0,None,right,False,2,1,0,enc,0,0,1,[],[],1,6,4 2 3 4 2 1,4,0.0,0.0,0.0,0.0,0.0,0.0,0,0.0,0.0,0.0,0.0,0.0
31,15,3.127852500008885,2,True,0.5,acc,right,True,2,1,5,ret,1,5,1,"['3', '2', '3', '4', '2', '1']","[88.8286584999878, 89.75651929999003, 90.24451230000705, 90.87660129999858, 91.64452490000986, 91.95651099999668]",1,6,# # # # # #,None,88.8286584999878,89.75651929999003,90.24451230000705,90.87660129999858,91.64452490000986,91.95651099999668,2.3801611999806482,0.9278608000022359,0.4879930000170134,0.632088999991538,0.7679236000112724,0.31198609998682514
32,16,0.0,2,False,0.0,None,right,False,2,1,0,enc,0,0,1,[],[],1,6,1 4 1 3 2 4,4,0.0,0.0,0.0,0.0,0.0,0.0,0,0.0,0.0,0.0,0.0,0.0
33,17,2.0079368000151594,2,True,0.5,acc,right,False,2,1,6,ret,1,10,1,"['1', '4', '1', '3', '2', '4']","[100.72457749999012, 101.02866260000155, 101.55647479998879, 101.90055289998418, 102.29261440000846, 102.73251430000528]",1,6,# # # # # #,None,100.72457749999012,101.02866260000155,101.55647479998879,101.90055289998418,102.29261440000846,102.73251430000528,2.268066499993438,0.3040851000114344,0.5278121999872383,0.34407809999538586,0.3920615000242833,0.4398998999968171
34,18,0.0,3,False,0.0,None,right,False,2,1,0,enc,0,0,0,[],[],1,6,2 3 3 3 3 4,6,0.0,0.0,0.0,0.0,0.0,0.0,0,0.0,0.0,0.0,0.0,0.0
35,19,4.960062500002097,3,True,0.5,acc,right,True,2,1,5,ret,1,5,0,"['4', '3', '3', '3', '3', '1']","[109.37254189999658, 109.66052279999712, 110.02852079999866, 112.42052879999392, 113.74055220000446, 114.33260439999867]",1,6,# # # # # #,None,109.37254189999658,109.66052279999712,110.02852079999866,112.42052879999392,113.74055220000446,114.33260439999867,0.1400275999912992,0.287980900000548,0.3679980000015348,2.3920079999952577,1.320023400010541,0.5920521999942139
36,20,0.0,3,False,0.0,None,right,False,2,1,0,enc,0,0,1,[],[],1,6,1 1 3 2 2 4,6,0.0,0.0,0.0,0.0,0.0,0.0,0,0.0,0.0,0.0,0.0,0.0
37,21,1.400099799997406,3,True,0.5,acc,right,True,2,1,5,ret,1,5,1,"['1', '3', '3', '2', '2', '4']","[120.82851510000182, 121.02051679999568, 121.2045713000116, 121.70051619998412, 121.96459300001152, 122.22861489999923]",1,6,# # # # # #,None,120.82851510000182,121.02051679999568,121.2045713000116,121.70051619998412,121.96459300001152,122.22861489999923,-0.0040892999968491495,0.19200169999385253,0.18405450001591817,0.4959448999725282,0.26407680002739653,0.26402189998771064
38,22,0.0,2,False,0.0,None,right,False,2,1,0,enc,0,0,0,[],[],1,6,4 1 1 1 4 4,4,0.0,0.0,0.0,0.0,0.0,0.0,0,0.0,0.0,0.0,0.0,0.0
39,23,4.744123800017405,2,True,0.5,acc,right,True,2,1,3,ret,1,3,0,"['4', '4', '4', '1', '3', '1']","[130.8604023999942, 131.20450900000287, 132.15659379999852, 133.62048330000835, 135.23657320000348, 135.6045262000116]",1,6,# # # # # #,None,130.8604023999942,131.20450900000287,132.15659379999852,133.62048330000835,135.23657320000348,135.6045262000116,2.131787499994971,0.3441066000086721,0.9520847999956459,1.4638895000098273,1.6160898999951314,0.3679530000081286
40,0,0.0,3,False,0.0,None,right,False,2,1,0,enc,0,0,1,[],[],2,6,3 2 2 3 2 3,6,0.0,0.0,0.0,0.0,0.0,0.0,0,0.0,0.0,0.0,0.0,0.0
41,1,2.184126699983608,3,True,0.5,acc,right,True,2,1,4,ret,1,4,1,"['3', '2', '2', '3', '3', '2']","[4.662126700015506, 4.934172600012971, 5.23819580001873, 5.542229100014083, 6.566122400021413, 6.846253399999114]",2,6,# # # # # #,None,4.662126700015506,4.934172600012971,5.23819580001873,5.542229100014083,6.566122400021413,6.846253399999114,NaN,0.2720458999974653,0.30402320000575855,0.30403329999535345,1.0238933000073303,0.2801309999777004
42,2,0.0,2,False,0.0,None,right,False,2,1,0,enc,0,0,1,[],[],2,6,2 4 4 4 4 1,4,0.0,0.0,0.0,0.0,0.0,0.0,0,0.0,0.0,0.0,0.0,0.0
43,3,2.231931799993617,2,True,0.5,acc,right,False,2,1,6,ret,1,10,1,"['2', '4', '4', '4', '4', '1']","[15.166220300015993, 15.92622590000974, 16.262184200022602, 16.63807159999851, 17.046199900010834, 17.39815210000961]",2,6,# # # # # #,None,15.166220300015993,15.92622590000974,16.262184200022602,16.63807159999851,17.046199900010834,17.39815210000961,1.8199669000168797,0.7600055999937467,0.3359583000128623,0.3758873999759089,0.40812830001232214,0.35195219999877736
44,4,0.0,3,False,0.0,None,right,False,2,1,0,enc,0,0,1,[],[],2,6,1 4 1 4 4 3,6,0.0,0.0,0.0,0.0,0.0,0.0,0,0.0,0.0,0.0,0.0,0.0
45,5,2.7281129000184587,3,True,0.5,acc,right,True,2,1,3,ret,1,3,1,"['1', '4', '4', '4', '3', '1']","[23.81426929999725, 24.13416060002055, 24.47016349999467, 24.9582320000045, 26.00615560001461, 26.54238220001571]",2,6,# # # # # #,None,23.81426929999725,24.13416060002055,24.47016349999467,24.9582320000045,26.00615560001461,26.54238220001571,-0.08388280001236126,0.3198913000233006,0.3360028999741189,0.48806850000983104,1.0479236000101082,0.5362266000011005
46,6,0.0,3,False,0.0,None,right,False,2,1,0,enc,0,0,0,[],[],2,6,1 3 1 3 1 3,6,0.0,0.0,0.0,0.0,0.0,0.0,0,0.0,0.0,0.0,0.0,0.0
47,7,3.2800355000072163,3,True,0.5,acc,right,True,2,1,4,ret,1,4,0,"['3', '1', '3', '3', '1', '1']","[33.84615440000198, 34.33412810001755, 34.81414120001136, 36.10219140001573, 36.67013240000233, 37.126189900009194]",2,6,# # # # # #,None,33.84615440000198,34.33412810001755,34.81414120001136,36.10219140001573,36.67013240000233,37.126189900009194,0.8037721999862697,0.48797370001557283,0.4800130999938119,1.2880502000043634,0.5679409999866039,0.45605750000686385
48,8,0.0,2,False,0.0,None,right,False,2,1,0,enc,0,0,0,[],[],2,6,2 1 4 4 4 2,4,0.0,0.0,0.0,0.0,0.0,0.0,0,0.0,0.0,0.0,0.0,0.0
49,9,4.0719209999952,2,True,0.5,acc,right,True,2,1,4,ret,1,4,0,"['2', '4', '4', '4', '4', '1']","[45.99822900001891, 46.55810640001437, 48.21413979999488, 48.53418600000441, 49.798148700007005, 50.07015000001411]",2,6,# # # # # #,None,45.99822900001891,46.55810640001437,48.21413979999488,48.53418600000441,49.798148700007005,50.07015000001411,2.372039100009715,0.5598773999954574,1.6560333999805152,0.32004620000952855,1.263962700002594,0.2720013000071049
50,10,0.0,3,False,0.0,None,right,False,2,1,0,enc,0,0,0,[],[],2,6,3 3 4 1 2 3,6,0.0,0.0,0.0,0.0,0.0,0.0,0,0.0,0.0,0.0,0.0,0.0
51,11,3.192029099998764,3,True,0.5,acc,right,True,2,1,4,ret,1,4,0,"['3', '2', '1', '4', '4', '1']","[56.63008590001846, 56.77418840001337, 57.046154800016666, 58.6462240999972, 58.94220280001173, 59.82211500001722]",2,6,# # # # # #,None,56.63008590001846,56.77418840001337,57.046154800016666,58.6462240999972,58.94220280001173,59.82211500001722,0.059935900004347786,0.14410249999491498,0.27196640000329353,1.6000692999805324,0.29597870001452975,0.8799122000054922
52,12,0.0,2,False,0.0,None,right,False,2,1,0,enc,0,0,0,[],[],2,6,4 2 2 2 3 1,4,0.0,0.0,0.0,0.0,0.0,0.0,0,0.0,0.0,0.0,0.0,0.0
53,13,3.4639169999863952,2,True,0.5,acc,right,True,2,1,3,ret,1,3,0,"['1', '3', '4', '4', '4', '4']","[69.21424230001867, 69.70214249999844, 70.47021290002158, 71.14222320000408, 71.82215880000149, 72.67815930000506]",2,6,# # # # # #,None,69.21424230001867,69.70214249999844,70.47021290002158,71.14222320000408,71.82215880000149,72.67815930000506,2.892127300001448,0.4879001999797765,0.7680704000231344,0.6720102999825031,0.6799355999974068,0.8560005000035744
54,14,0.0,3,False,0.0,None,right,False,2,1,0,enc,0,0,1,[],[],2,6,3 2 2 1 1 4,6,0.0,0.0,0.0,0.0,0.0,0.0,0,0.0,0.0,0.0,0.0,0.0
55,15,1.3759653000161052,3,True,0.5,acc,right,False,2,1,6,ret,1,10,1,"['3', '2', '2', '1', '1', '4']","[79.06215189999784, 79.28605850000167, 79.51014369999757, 80.04612939999788, 80.24613139999565, 80.43811720001395]",2,6,# # # # # #,None,79.06215189999784,79.28605850000167,79.51014369999757,80.04612939999788,80.24613139999565,80.43811720001395,-0.11600740000721999,0.22390660000382923,0.2240851999958977,0.5359857000003103,0.2000019999977667,0.19198580001830123
56,16,0.0,2,False,0.0,None,right,False,2,1,0,enc,0,0,0,[],[],2,6,4 3 2 1 2 2,4,0.0,0.0,0.0,0.0,0.0,0.0,0,0.0,0.0,0.0,0.0,0.0
57,17,5.31194789998699,2,True,0.5,acc,right,True,2,1,2,ret,1,2,0,"['4', '2', '2', '1', '3', '2']","[89.41416020001634, 91.21410660000402, 91.41408899999806, 94.1982405000017, 94.5342150000215, 94.72610810000333]",2,6,# # # # # #,None,89.41416020001634,91.21410660000402,91.41408899999806,94.1982405000017,94.5342150000215,94.72610810000333,2.4760430000023916,1.7999463999876752,0.19998239999404177,2.784151500003645,0.3359745000198018,0.1918930999818258
58,18,0.0,2,False,0.0,None,right,False,2,1,0,enc,0,0,1,[],[],2,6,3 1 4 4 2 3,4,0.0,0.0,0.0,0.0,0.0,0.0,0,0.0,0.0,0.0,0.0,0.0
59,19,1.8880489000002847,2,True,0.5,acc,right,False,2,1,6,ret,1,10,1,"['3', '1', '4', '4', '2', '3']","[103.27014700000291, 103.67822940001497, 104.2941800999979, 104.64614990001428, 104.95021340000676, 105.1581959000032]",2,6,# # # # # #,None,103.27014700000291,103.67822940001497,104.2941800999979,104.64614990001428,104.95021340000676,105.1581959000032,2.0440388999995776,0.40808240001206286,0.6159506999829318,0.3519698000163771,0.3040634999924805,0.20798249999643303
60,20,0.0,3,False,0.0,None,right,False,2,1,0,enc,0,0,0,[],[],2,6,1 1 4 4 3 2,6,0.0,0.0,0.0,0.0,0.0,0.0,0,0.0,0.0,0.0,0.0,0.0
61,21,3.8799024999898393,3,True,0.5,acc,right,False,2,1,6,ret,1,10,0,"['2', '3', '4', '4', '1', '1']","[113.6941529000178, 114.01420480001252, 114.34221210001851, 117.16613040000084, 117.39012830000138, 117.57405540000764]",2,6,# # # # # #,None,113.6941529000178,114.01420480001252,114.34221210001851,117.16613040000084,117.39012830000138,117.57405540000764,2.035957000014605,0.3200518999947235,0.3280073000059929,2.8239182999823242,0.22399790000054054,0.18392710000625812
62,22,0.0,2,False,0.0,None,right,False,2,1,0,enc,0,0,1,[],[],2,6,4 2 1 2 4 1,4,0.0,0.0,0.0,0.0,0.0,0.0,0,0.0,0.0,0.0,0.0,0.0
63,23,3.448506799992174,2,True,0.5,acc,right,True,2,1,3,ret,1,3,1,"['4', '1', '1', '2', '1', '4']","[127.63815070001874, 128.00607840000885, 129.5021306000126, 129.88609220000217, 130.81414689999656, 131.08665750001092]",2,6,# # # # # #,None,127.63815070001874,128.00607840000885,129.5021306000126,129.88609220000217,130.81414689999656,131.08665750001092,3.564095300011104,0.3679276999901049,1.49605220000376,0.38396159998956136,0.9280546999943908,0.2725106000143569
64,0,0.0,2,False,0.0,None,right,False,2,1,0,enc,0,0,1,[],[],3,6,1 3 3 1 2 3,4,0.0,0.0,0.0,0.0,0.0,0.0,0,0.0,0.0,0.0,0.0,0.0
65,1,16.419047000003047,2,True,0.5,acc,right,True,2,1,4,ret,1,4,1,"['m', '1', '3', '1', '2', '3']","[-6.173470800014911, 7.773455599992303, 8.0933631999942, 9.429389600001741, 9.78148110001348, 10.245576199988136]",3,6,# # # # # #,None,-6.173470800014911,7.773455599992303,8.0933631999942,9.429389600001741,9.78148110001348,10.245576199988136,NaN,13.946926400007214,0.31990760000189766,1.3360264000075404,0.3520915000117384,0.4640950999746565
66,2,0.0,3,False,0.0,None,right,False,2,1,0,enc,0,0,0,[],[],3,6,2 3 1 2 2 1,6,0.0,0.0,0.0,0.0,0.0,0.0,0,0.0,0.0,0.0,0.0,0.0
67,3,2.7283567000122275,3,True,0.5,acc,right,True,2,1,4,ret,1,4,0,"['1', '2', '2', '3', '1', '2']","[18.05350159999216, 18.237482399999863, 18.43745259998832, 20.293438299995614, 20.57347010000376, 20.781858300004387]",3,6,# # # # # #,None,18.05350159999216,18.237482399999863,18.43745259998832,20.293438299995614,20.57347010000376,20.781858300004387,1.3079254000040237,0.18398080000770278,0.19997019998845644,1.8559857000072952,0.2800318000081461,0.20838820000062697
68,4,0.0,3,False,0.0,None,right,False,2,1,0,enc,0,0,1,[],[],3,6,4 1 3 2 2 1,6,0.0,0.0,0.0,0.0,0.0,0.0,0,0.0,0.0,0.0,0.0,0.0
69,5,2.2160028000071184,3,True,0.5,acc,right,True,2,1,5,ret,1,5,1,"['3', '1', '3', '2', '2', '1']","[27.885445899999468, 28.82943539999542, 29.285438899998553, 29.613424000010127, 29.87735850000172, 30.101448700006586]",3,6,# # # # # #,None,27.885445899999468,28.82943539999542,29.285438899998553,29.613424000010127,29.87735850000172,30.101448700006586,0.6035875999950804,0.9439894999959506,0.45600350000313483,0.3279851000115741,0.263934499991592,0.22409020000486635
70,6,0.0,2,False,0.0,None,right,False,2,1,0,enc,0,0,0,[],[],3,6,3 4 4 3 4 1,4,0.0,0.0,0.0,0.0,0.0,0.0,0,0.0,0.0,0.0,0.0,0.0
71,7,5.343900399981067,2,True,0.5,acc,right,True,2,1,2,ret,1,2,0,"['3', '4', '4', '1', '2', '3']","[39.157439300004626, 40.23753509999369, 43.32539710000856, 43.62943050000467, 44.01344959999551, 44.50133969998569]",3,6,# # # # # #,None,39.157439300004626,40.23753509999369,43.32539710000856,43.62943050000467,44.01344959999551,44.50133969998569,2.55599059999804,1.080095799989067,3.0878620000148658,0.3040333999961149,0.3840190999908373,0.4878900999901816
72,8,0.0,3,False,0.0,None,right,False,2,1,0,enc,0,0,1,[],[],3,6,1 2 2 4 4 3,6,0.0,0.0,0.0,0.0,0.0,0.0,0,0.0,0.0,0.0,0.0,0.0
73,9,1.271972900023684,3,True,0.5,acc,right,False,2,1,6,ret,1,10,1,"['1', '2', '2', '4', '4', '3']","[50.72537979998742, 50.90940340000088, 51.093389399989974, 51.629505599994445, 51.8134427999903, 51.997352700011106]",3,6,# # # # # #,None,50.72537979998742,50.90940340000088,51.093389399989974,51.629505599994445,51.8134427999903,51.997352700011106,-0.27595989999827,0.18402360001346096,0.1839859999890905,0.5361162000044715,0.183937199995853,0.18390990002080798
74,10,0.0,2,False,0.0,None,right,False,2,1,0,enc,0,0,0,[],[],3,6,4 4 3 2 3 3,4,0.0,0.0,0.0,0.0,0.0,0.0,0,0.0,0.0,0.0,0.0,0.0
75,11,3.863914300018223,2,True,0.5,acc,right,True,2,1,5,ret,1,5,0,"['3', '3', '2', '3', '4', '3']","[61.50152019999223, 61.83728539998992, 63.261466399999335, 63.56544400000712, 65.08541989998776, 65.36543450001045]",3,6,# # # # # #,None,61.50152019999223,61.83728539998992,63.261466399999335,63.56544400000712,65.08541989998776,65.36543450001045,3.004167499981122,0.33576519999769516,1.424181000009412,0.3039776000077836,1.5199758999806363,0.28001460002269596
76,12,0.0,3,False,0.0,None,right,False,2,1,0,enc,0,0,0,[],[],3,6,2 4 3 2 2 4,6,0.0,0.0,0.0,0.0,0.0,0.0,0,0.0,0.0,0.0,0.0,0.0
77,13,3.616023999988101,3,True,0.5,acc,right,True,2,1,4,ret,1,4,0,"['4', '2', '2', '2', '4', '1']","[72.19750239999848, 72.43741939999745, 72.66190340000321, 75.30147189999116, 75.54153349998523, 75.81352639998659]",3,6,# # # # # #,None,72.19750239999848,72.43741939999745,72.66190340000321,75.30147189999116,75.54153349998523,75.81352639998659,0.3320678999880329,0.2399169999989681,0.2244840000057593,2.639568499987945,0.24006159999407828,0.2719929000013508
78,14,0.0,2,False,0.0,None,right,False,2,1,0,enc,0,0,0,[],[],3,6,2 3 4 4 1 2,4,0.0,0.0,0.0,0.0,0.0,0.0,0,0.0,0.0,0.0,0.0,0.0
79,15,2.9274868000065912,2,True,0.5,acc,right,False,2,1,6,ret,1,10,0,"['2', '1', '4', '4', '3', '2']","[85.48576939999475, 85.72530990000814, 86.44543160000467, 86.66953809998813, 88.20553380000638, 88.41325620000134]",3,6,# # # # # #,None,85.48576939999475,85.72530990000814,86.44543160000467,86.66953809998813,88.20553380000638,88.41325620000134,3.172243000008166,0.23954050001339056,0.7201216999965254,0.22410649998346344,1.5359957000182476,0.20772239999496378
80,16,0.0,3,False,0.0,None,right,False,2,1,0,enc,0,0,1,[],[],3,6,2 1 1 2 4 1,6,0.0,0.0,0.0,0.0,0.0,0.0,0,0.0,0.0,0.0,0.0,0.0
81,17,1.8001065999851562,3,True,0.5,acc,right,False,2,1,6,ret,1,10,1,"['2', '1', '1', '2', '4', '1']","[95.0373694000009, 95.4454345999984, 95.669439099991, 96.34952809999231, 96.60542040001019, 96.83747599998605]",3,6,# # # # # #,None,95.0373694000009,95.4454345999984,95.669439099991,96.34952809999231,96.60542040001019,96.83747599998605,0.12411319999955595,0.4080651999975089,0.22400449999258853,0.6800890000013169,0.25589230001787655,0.23205559997586533
82,18,0.0,3,False,0.0,None,right,False,2,1,0,enc,0,0,0,[],[],3,6,3 2 1 1 3 2,6,0.0,0.0,0.0,0.0,0.0,0.0,0,0.0,0.0,0.0,0.0,0.0
83,19,2.2799088000028847,3,True,0.5,acc,right,True,2,1,4,ret,1,4,0,"['2', '3', '1', '3', '2', '1']","[103.76551460000337, 103.97347840000293, 104.22138820000691, 105.68538670000271, 105.85346459998982, 106.04542340000626]",3,6,# # # # # #,None,103.76551460000337,103.97347840000293,104.22138820000691,105.68538670000271,105.85346459998982,106.04542340000626,0.42803860001731664,0.20796379999956116,0.24790980000398122,1.463998499995796,0.16807789998711087,0.19195880001643673
84,20,0.0,2,False,0.0,None,right,False,2,1,0,enc,0,0,1,[],[],3,6,1 4 1 4 2 1,4,0.0,0.0,0.0,0.0,0.0,0.0,0,0.0,0.0,0.0,0.0,0.0
85,21,1.5440712000126953,2,True,0.5,acc,right,False,2,1,6,ret,1,10,1,"['1', '4', '1', '4', '2', '1']","[115.09339039999759, 115.39737429999514, 115.7014363000053, 116.02146119999816, 116.34137660000124, 116.63746160001028]",3,6,# # # # # #,None,115.09339039999759,115.39737429999514,115.7014363000053,116.02146119999816,116.34137660000124,116.63746160001028,2.5479669999913312,0.30398389999754727,0.3040620000101626,0.320024899992859,0.31991540000308305,0.29608500000904314
86,22,0.0,2,False,0.0,None,right,False,2,1,0,enc,0,0,1,[],[],3,6,1 3 2 1 1 3,4,0.0,0.0,0.0,0.0,0.0,0.0,0,0.0,0.0,0.0,0.0,0.0
87,23,1.8320857000071555,2,True,0.5,acc,right,False,2,1,6,ret,1,10,1,"['1', '3', '2', '1', '1', '3']","[124.92535360000329, 125.15723589999834, 125.75743520000833, 126.14151350001339, 126.53338680000161, 126.75743930001045]",3,6,# # # # # #,None,124.92535360000329,125.15723589999834,125.75743520000833,126.14151350001339,126.53338680000161,126.75743930001045,1.7878919999930076,0.23188229999504983,0.6001993000099901,0.3840783000050578,0.3918732999882195,0.22405250000883825
88,0,0.0,2,False,0.0,None,right,False,2,1,0,enc,0,0,1,[],[],4,6,4 4 1 3 2 2,4,0.0,0.0,0.0,0.0,0.0,0.0,0,0.0,0.0,0.0,0.0,0.0
89,1,1.2962439000257289,2,True,0.5,acc,right,False,2,1,6,ret,1,10,1,"['4', '4', '1', '3', '2', '2']","[6.850933299981989, 7.035042300005443, 7.506888300005812, 7.762995500001125, 7.9710430999984965, 8.147177200007718]",4,6,# # # # # #,None,6.850933299981989,7.035042300005443,7.506888300005812,7.762995500001125,7.9710430999984965,8.147177200007718,NaN,0.18410900002345443,0.4718460000003688,0.25610719999531284,0.20804759999737144,0.17613410000922158
90,2,0.0,2,False,0.0,None,right,False,2,1,0,enc,0,0,0,[],[],4,6,3 2 1 3 4 3,4,0.0,0.0,0.0,0.0,0.0,0.0,0,0.0,0.0,0.0,0.0,0.0
91,3,4.8798517999821325,2,True,0.5,acc,right,True,2,1,3,ret,1,3,0,"['3', '4', '2', '3', '2', '1']","[18.26713930000551, 18.594991099991603, 21.043025399994804, 21.394984499987913, 22.96296710000024, 23.146991099987645]",4,6,# # # # # #,None,18.26713930000551,18.594991099991603,21.043025399994804,21.394984499987913,22.96296710000024,23.146991099987645,3.6199620999977924,0.3278517999860924,2.4480343000032008,0.3519590999931097,1.5679826000123285,0.18402399998740293
92,4,0.0,3,False,0.0,None,right,False,2,1,0,enc,0,0,0,[],[],4,6,2 3 2 3 1 2,6,0.0,0.0,0.0,0.0,0.0,0.0,0,0.0,0.0,0.0,0.0,0.0
93,5,7.320065000007162,3,True,0.5,acc,right,True,2,1,3,ret,1,3,0,"['2', '1', '3', '3', '2', '4']","[30.122996899997815, 34.618920299981255, 34.83498650000547, 36.71497229998931, 36.978983799985144, 37.44306190000498]",4,6,# # # # # #,None,30.122996899997815,34.618920299981255,34.83498650000547,36.71497229998931,36.978983799985144,37.44306190000498,0.4760058000101708,4.49592339998344,0.2160662000242155,1.8799857999838423,0.2640114999958314,0.4640781000198331
94,6,0.0,3,False,0.0,None,right,False,2,1,0,enc,0,0,1,[],[],4,6,4 4 4 2 2 1,6,0.0,0.0,0.0,0.0,0.0,0.0,0,0.0,0.0,0.0,0.0,0.0
95,7,0.9599427999928594,3,True,0.5,acc,right,False,2,1,6,ret,1,10,1,"['4', '4', '4', '2', '2', '1']","[43.97105359999114, 44.13103799999226, 44.35498119998374, 44.5709513000038, 44.74713299999712, 44.930996399984]",4,6,# # # # # #,None,43.97105359999114,44.13103799999226,44.35498119998374,44.5709513000038,44.74713299999712,44.930996399984,0.0279916999861598,0.15998440000112168,0.22394319999148138,0.21597010002005845,0.17618169999332167,0.18386339998687617
96,8,0.0,2,False,0.0,None,right,False,2,1,0,enc,0,0,1,[],[],4,6,3 1 4 3 4 1,4,0.0,0.0,0.0,0.0,0.0,0.0,0,0.0,0.0,0.0,0.0,0.0
97,9,2.4797990999941253,2,True,0.5,acc,right,True,2,1,5,ret,1,5,1,"['3', '1', '4', '3', '2', '1']","[53.45917560000089, 53.731114099995466, 54.019043999986025, 54.7791154999868, 55.24298379998072, 55.938974699995015]",4,6,# # # # # #,None,53.45917560000089,53.731114099995466,54.019043999986025,54.7791154999868,55.24298379998072,55.938974699995015,2.0281792000168934,0.271938499994576,0.2879298999905586,0.7600715000007767,0.4638682999939192,0.6959909000142943
98,10,0.0,3,False,0.0,None,right,False,2,1,0,enc,0,0,1,[],[],4,6,3 1 4 2 4 3,6,0.0,0.0,0.0,0.0,0.0,0.0,0,0.0,0.0,0.0,0.0,0.0
99,11,2.768057500012219,3,True,0.5,acc,right,True,2,1,5,ret,1,5,1,"['3', '1', '4', '2', '4', '1']","[62.41900739999255, 62.86701240000548, 63.14696419998654, 63.41901389998384, 64.00297470000805, 65.18706490000477]",4,6,# # # # # #,None,62.41900739999255,62.86701240000548,63.14696419998654,63.41901389998384,64.00297470000805,65.18706490000477,-0.019967300002463162,0.44800500001292676,0.27995179998106323,0.27204969999729656,0.5839608000242151,1.1840901999967173
100,12,0.0,2,False,0.0,None,right,False,2,1,0,enc,0,0,0,[],[],4,6,2 1 4 1 4 4,4,0.0,0.0,0.0,0.0,0.0,0.0,0,0.0,0.0,0.0,0.0,0.0
101,13,7.208016499993391,2,True,0.5,acc,right,True,2,1,4,ret,1,4,0,"['4', '4', '1', '2', '1', '3']","[74.09099460000289, 74.46707959999912, 77.75501009999425, 78.03500509998412, 79.77888520000852, 81.29901109999628]",4,6,# # # # # #,None,74.09099460000289,74.46707959999912,77.75501009999425,78.03500509998412,79.77888520000852,81.29901109999628,2.403929699998116,0.37608499999623746,3.2879304999951273,0.2799949999898672,1.7438801000243984,1.520125899987761
102,14,0.0,3,False,0.0,None,right,False,2,1,0,enc,0,0,0,[],[],4,6,4 4 4 2 2 3,6,0.0,0.0,0.0,0.0,0.0,0.0,0,0.0,0.0,0.0,0.0,0.0
103,15,0.9359799000085331,3,True,0.5,acc,right,False,2,1,6,ret,1,10,0,"['3', '2', '2', '4', '4', '4']","[88.22700349998195, 88.41098809998948, 88.60297559999162, 88.81098139999085, 88.98709599999711, 89.16298339999048]",4,6,# # # # # #,None,88.22700349998195,88.41098809998948,88.60297559999162,88.81098139999085,88.98709599999711,89.16298339999048,0.4279923999856692,0.18398460000753403,0.19198750000214204,0.20800579999922775,0.17611460000625812,0.17588739999337122
104,16,0.0,2,False,0.0,None,right,False,2,1,0,enc,0,0,1,[],[],4,6,4 2 3 2 4 3,4,0.0,0.0,0.0,0.0,0.0,0.0,0,0.0,0.0,0.0,0.0,0.0
105,17,2.424084099999164,2,True,0.5,acc,right,True,2,1,5,ret,1,5,1,"['4', '2', '3', '2', '4', '1']","[98.94698899998912, 99.60298830000102, 100.14710159998504, 100.5229779999936, 101.1229412999819, 101.37107309998828]",4,6,# # # # # #,None,98.94698899998912,99.60298830000102,100.14710159998504,100.5229779999936,101.1229412999819,101.37107309998828,3.284005599998636,0.6559993000118993,0.5441132999840192,0.3758764000085648,0.5999632999883033,0.24813180000637658
106,18,0.0,2,False,0.0,None,right,False,2,1,0,enc,0,0,0,[],[],4,6,4 4 2 3 3 4,4,0.0,0.0,0.0,0.0,0.0,0.0,0,0.0,0.0,0.0,0.0,0.0
107,19,3.479975399997784,2,True,0.5,acc,right,True,2,1,5,ret,1,5,0,"['4', '2', '3', '2', '4', '4']","[110.96303449998959, 111.45963249998749, 112.51502869999968, 112.81893899998977, 114.07499969998025, 114.44300989998737]",4,6,# # # # # #,None,110.96303449998959,111.45963249998749,112.51502869999968,112.81893899998977,114.07499969998025,114.44300989998737,3.09196140000131,0.49659799999790266,1.0553962000121828,0.30391029999009334,1.2560606999904849,0.36801020000712015
108,20,0.0,3,False,0.0,None,right,False,2,1,0,enc,0,0,1,[],[],4,6,3 3 3 1 1 2,6,0.0,0.0,0.0,0.0,0.0,0.0,0,0.0,0.0,0.0,0.0,0.0
109,21,1.2079683000047226,3,True,0.5,acc,right,False,2,1,6,ret,1,10,1,"['3', '3', '3', '1', '1', '2']","[120.93107160000363, 121.10698179999599, 121.27501260000281, 121.69898939999985, 121.9310797000071, 122.13903990000836]",4,6,# # # # # #,None,120.93107160000363,121.10698179999599,121.27501260000281,121.69898939999985,121.9310797000071,122.13903990000836,-0.011938299983739853,0.17591019999235868,0.16803080000681803,0.4239767999970354,0.2320903000072576,0.20796020000125282
110,22,0.0,3,False,0.0,None,right,False,2,1,0,enc,0,0,0,[],[],4,6,1 4 3 2 2 1,6,0.0,0.0,0.0,0.0,0.0,0.0,0,0.0,0.0,0.0,0.0,0.0
111,23,3.023944800021127,3,True,0.5,acc,right,True,2,1,4,ret,1,4,0,"['1', '2', '2', '4', '2', '1']","[129.01100549998228, 129.21099729998969, 129.4510569999984, 131.27500829999917, 131.69895890000043, 132.0349503000034]",4,6,# # # # # #,None,129.01100549998228,129.21099729998969,129.4510569999984,131.27500829999917,131.69895890000043,132.0349503000034,0.37196559997391887,0.19999180000741035,0.24005970000871457,1.8239513000007719,0.4239506000012625,0.33599140000296757
112,0,0.0,3,False,0.0,None,right,False,2,1,0,enc,0,0,1,[],[],5,6,4 3 1 1 1 1,6,0.0,0.0,0.0,0.0,0.0,0.0,0,0.0,0.0,0.0,0.0,0.0
113,1,1.3198895000095945,3,True,0.5,acc,right,False,2,1,6,ret,1,10,1,"['4', '3', '1', '1', '1', '1']","[5.300982799992198, 5.692909600009443, 5.9888799999898765, 6.220899500011001, 6.4128142000117805, 6.620872300001793]",5,6,# # # # # #,None,5.300982799992198,5.692909600009443,5.9888799999898765,6.220899500011001,6.4128142000117805,6.620872300001793,NaN,0.3919268000172451,0.2959703999804333,0.23201950002112426,0.1919147000007797,0.20805809999001212
114,2,0.0,3,False,0.0,None,right,False,2,1,0,enc,0,0,1,[],[],5,6,2 4 2 3 2 4,6,0.0,0.0,0.0,0.0,0.0,0.0,0,0.0,0.0,0.0,0.0,0.0
115,3,1.423951999982819,3,True,0.5,acc,right,False,2,1,6,ret,1,10,1,"['2', '4', '2', '3', '2', '4']","[13.716977300005965, 13.91686229998595, 14.172885000007227, 14.708865900000092, 14.916871900000842, 15.140929299988784]",5,6,# # # # # #,None,13.716977300005965,13.91686229998595,14.172885000007227,14.708865900000092,14.916871900000842,15.140929299988784,0.5961050000041723,0.19988499997998588,0.25602270002127625,0.5359808999928646,0.20800600000075065,0.2240573999879416
116,4,0.0,2,False,0.0,None,right,False,2,1,0,enc,0,0,1,[],[],5,6,4 3 3 2 2 2,4,0.0,0.0,0.0,0.0,0.0,0.0,0,0.0,0.0,0.0,0.0,0.0
117,5,1.4240581000049133,2,True,0.5,acc,right,False,2,1,6,ret,1,10,1,"['4', '3', '3', '2', '2', '2']","[23.25293749998673, 23.532872799987672, 23.804968899989035, 24.15694089999306, 24.46107709998614, 24.676995599991642]",5,6,# # # # # #,None,23.25293749998673,23.532872799987672,23.804968899989035,24.15694089999306,24.46107709998614,24.676995599991642,1.6120081999979448,0.27993530000094324,0.2720961000013631,0.3519720000040252,0.3041361999930814,0.2159185000055004
118,6,0.0,2,False,0.0,None,right,False,2,1,0,enc,0,0,1,[],[],5,6,2 3 1 3 2 3,4,0.0,0.0,0.0,0.0,0.0,0.0,0,0.0,0.0,0.0,0.0,0.0
119,7,1.232015899993712,2,True,0.5,acc,right,False,2,1,6,ret,1,10,1,"['2', '3', '1', '3', '2', '3']","[33.18085090001114, 33.38887039999827, 33.66884699999355, 33.90892899999744, 34.204851699993014, 34.41286680000485]",5,6,# # # # # #,None,33.18085090001114,33.38887039999827,33.66884699999355,33.90892899999744,34.204851699993014,34.41286680000485,2.003855300019495,0.20801949998713098,0.2799765999952797,0.2400820000038948,0.29592269999557175,0.20801510001183487
120,8,0.0,2,False,0.0,None,right,False,2,1,0,enc,0,0,0,[],[],5,6,3 2 3 1 3 4,4,0.0,0.0,0.0,0.0,0.0,0.0,0,0.0,0.0,0.0,0.0,0.0
121,9,5.4320715999929226,2,True,0.5,acc,right,True,2,1,3,ret,1,3,0,"['4', '3', '3', '3', '3', '2']","[44.07680790001177, 44.67686119998689, 45.900833499996224, 46.76488830000744, 49.22894589998759, 49.508879500004696]",5,6,# # # # # #,None,44.07680790001177,44.67686119998689,45.900833499996224,46.76488830000744,49.22894589998759,49.508879500004696,3.163941100006923,0.6000532999751158,1.2239723000093363,0.8640548000112176,2.4640575999801513,0.27993360001710244
122,10,0.0,3,False,0.0,None,right,False,2,1,0,enc,0,0,0,[],[],5,6,1 3 1 4 1 1,6,0.0,0.0,0.0,0.0,0.0,0.0,0,0.0,0.0,0.0,0.0,0.0
123,11,4.4318030000140425,3,True,0.5,acc,right,True,2,1,3,ret,1,3,0,"['1', '1', '4', '3', '1', '3']","[56.32489759998862, 56.556851400004234, 56.85285570000997, 60.34087109999382, 60.54887040000176, 60.75670060000266]",5,6,# # # # # #,None,56.32489759998862,56.556851400004234,56.85285570000997,60.34087109999382,60.54887040000176,60.75670060000266,0.3160180999839213,0.23195380001561716,0.29600430000573397,3.4880153999838512,0.2079993000079412,0.2078302000008989
124,12,0.0,3,False,0.0,None,right,False,2,1,0,enc,0,0,0,[],[],5,6,3 3 4 4 1 1,6,0.0,0.0,0.0,0.0,0.0,0.0,0,0.0,0.0,0.0,0.0,0.0
125,13,3.648043499997584,3,True,0.5,acc,right,True,2,1,5,ret,1,5,0,"['1', '1', '4', '4', '3', '1']","[67.70086660000379, 68.02885699999752, 68.60477489998448, 70.82095709998976, 71.08483529998921, 71.34891010000138]",5,6,# # # # # #,None,67.70086660000379,68.02885699999752,68.60477489998448,70.82095709998976,71.08483529998921,71.34891010000138,0.4441660000011325,0.32799039999372326,0.5759178999869619,2.216182200005278,0.2638781999994535,0.26407480001216754
126,14,0.0,2,False,0.0,None,right,False,2,1,0,enc,0,0,0,[],[],5,6,1 4 1 2 4 4,4,0.0,0.0,0.0,0.0,0.0,0.0,0,0.0,0.0,0.0,0.0,0.0
127,15,2.735926800000016,2,True,0.5,acc,right,False,2,1,6,ret,1,10,0,"['4', '4', '2', '1', '4', '1']","[80.15698890000931, 80.45294300001115, 81.42090040000039, 81.77290959999664, 82.62106159998802, 82.89291570000933]",5,6,# # # # # #,None,80.15698890000931,80.45294300001115,81.42090040000039,81.77290959999664,82.62106159998802,82.89291570000933,2.3080788000079338,0.2959541000018362,0.9679573999892455,0.352009199996246,0.8481519999913871,0.27185410002130084
128,16,0.0,2,False,0.0,None,right,False,2,1,0,enc,0,0,1,[],[],5,6,1 2 2 1 4 2,4,0.0,0.0,0.0,0.0,0.0,0.0,0,0.0,0.0,0.0,0.0,0.0
129,17,2.576061399973696,2,True,0.5,acc,right,False,2,1,6,ret,1,10,1,"['1', '2', '2', '1', '4', '2']","[91.79681930001243, 92.35697799999616, 93.06095039998763, 93.45293669999228, 94.14085689999047, 94.37288069998613]",5,6,# # # # # #,None,91.79681930001243,92.35697799999616,93.06095039998763,93.45293669999228,94.14085689999047,94.37288069998613,2.4039036000031047,0.5601586999837309,0.7039723999914713,0.3919863000046462,0.6879201999981888,0.23202379999565892
130,18,0.0,3,False,0.0,None,right,False,2,1,0,enc,0,0,1,[],[],5,6,2 2 1 3 1 3,6,0.0,0.0,0.0,0.0,0.0,0.0,0,0.0,0.0,0.0,0.0,0.0
131,19,1.4001414000231307,3,True,0.5,acc,right,False,2,1,6,ret,1,10,1,"['2', '2', '1', '3', '1', '3']","[100.93273209998733, 101.11680230000638, 101.36483129998669, 101.90891599998577, 102.14088039999478, 102.33287350001046]",5,6,# # # # # #,None,100.93273209998733,101.11680230000638,101.36483129998669,101.90891599998577,102.14088039999478,102.33287350001046,0.05985140000120737,0.1840702000190504,0.24802899998030625,0.5440846999990754,0.2319644000090193,0.19199310001567937
132,20,0.0,2,False,0.0,None,right,False,2,1,0,enc,0,0,0,[],[],5,6,3 4 2 3 1 4,4,0.0,0.0,0.0,0.0,0.0,0.0,0,0.0,0.0,0.0,0.0,0.0
133,21,2.464425800018944,2,True,0.5,acc,right,True,2,1,5,ret,1,5,0,"['4', '1', '3', '2', '4', '1']","[110.62879719998455, 110.95684910001, 111.74086329998681, 112.05270999998902, 112.83686760001001, 113.09322300000349]",5,6,# # # # # #,None,110.62879719998455,110.95684910001,111.74086329998681,112.05270999998902,112.83686760001001,113.09322300000349,1.7959236999740824,0.32805190002545714,0.7840141999768093,0.3118467000022065,0.7841576000209898,0.2563553999934811
134,22,0.0,3,False,0.0,None,right,False,2,1,0,enc,0,0,0,[],[],5,6,2 3 3 3 4 2,6,0.0,0.0,0.0,0.0,0.0,0.0,0,0.0,0.0,0.0,0.0,0.0
135,23,5.927831500011963,3,True,0.5,acc,right,True,2,1,4,ret,1,4,0,"['2', '4', '3', '2', '3', '3']","[119.8049619999947, 120.0769425999897, 120.58891099999892, 124.11687349999556, 124.3808374000073, 125.73279350000666]",5,6,# # # # # #,None,119.8049619999947,120.0769425999897,120.58891099999892,124.11687349999556,124.3808374000073,125.73279350000666,0.21173899999121204,0.271980599995004,0.5119684000092093,3.5279624999966472,0.2639639000117313,1.35195609999937
136,0,0.0,2,False,0.0,None,right,False,2,1,0,enc,0,0,1,[],[],6,6,2 3 1 1 2 3,4,0.0,0.0,0.0,0.0,0.0,0.0,0,0.0,0.0,0.0,0.0,0.0
137,1,1.2560856000054628,2,True,0.5,acc,right,False,2,1,6,ret,1,10,1,"['2', '3', '1', '1', '2', '3']","[6.535185399989132, 6.727218499989249, 6.919222299999092, 7.495240999996895, 7.67924889997812, 7.791270999994595]",6,6,# # # # # #,None,6.535185399989132,6.727218499989249,6.919222299999092,7.495240999996895,7.67924889997812,7.791270999994595,NaN,0.19203310000011697,0.19200380000984296,0.5760186999978032,0.1840078999812249,0.11202210001647472
138,2,0.0,3,False,0.0,None,right,False,2,1,0,enc,0,0,1,[],[],6,6,2 3 3 4 2 2,6,0.0,0.0,0.0,0.0,0.0,0.0,0,0.0,0.0,0.0,0.0,0.0
139,3,1.3038710999826435,3,True,0.5,acc,right,False,2,1,6,ret,1,10,1,"['2', '3', '3', '4', '2', '2']","[14.479268600000069, 14.647168999974383, 14.847263299976476, 15.33506959999795, 15.599219999974594, 15.783139699982712]",6,6,# # # # # #,None,14.479268600000069,14.647168999974383,14.847263299976476,15.33506959999795,15.599219999974594,15.783139699982712,0.18799760000547394,0.1679003999743145,0.2000943000020925,0.4878063000214752,0.2641503999766428,0.18391970000811853
140,4,0.0,2,False,0.0,None,right,False,2,1,0,enc,0,0,0,[],[],6,6,3 1 2 4 4 4,4,0.0,0.0,0.0,0.0,0.0,0.0,0,0.0,0.0,0.0,0.0,0.0
141,5,3.5199843999871514,2,True,0.5,acc,right,True,2,1,3,ret,1,3,0,"['4', '4', '3', '2', '3', '1']","[24.751180499995826, 25.07923859998118, 25.975195999984862, 26.231176399975084, 28.127204599994002, 28.271164899982978]",6,6,# # # # # #,None,24.751180499995826,25.07923859998118,25.975195999984862,26.231176399975084,28.127204599994002,28.271164899982978,2.4680408000131138,0.3280580999853555,0.895957400003681,0.2559803999902215,1.8960282000189181,0.14396029998897575
142,6,0.0,3,False,0.0,None,right,False,2,1,0,enc,0,0,1,[],[],6,6,3 3 1 3 2 2,6,0.0,0.0,0.0,0.0,0.0,0.0,0,0.0,0.0,0.0,0.0,0.0
143,7,1.528112500003772,3,True,0.5,acc,right,True,2,1,5,ret,1,5,1,"['3', '3', '1', '1', '2', '2']","[34.74320159998024, 34.927072099992074, 35.27933629998006, 35.86317899997812, 36.09521919998224, 36.27131409998401]",6,6,# # # # # #,None,34.74320159998024,34.927072099992074,35.27933629998006,35.86317899997812,36.09521919998224,36.27131409998401,-0.027963300002738833,0.18387050001183525,0.3522641999879852,0.5838426999980584,0.2320402000041213,0.17609490000177175
144,8,0.0,2,False,0.0,None,right,False,2,1,0,enc,0,0,1,[],[],6,6,1 2 2 2 4 1,4,0.0,0.0,0.0,0.0,0.0,0.0,0,0.0,0.0,0.0,0.0,0.0
145,9,1.3520947999786586,2,True,0.5,acc,right,False,2,1,6,ret,1,10,1,"['1', '2', '2', '2', '4', '1']","[44.85517009999603, 45.15118249997613, 45.41527369999676, 45.65516729999217, 45.92715949998819, 46.20726489997469]",6,6,# # # # # #,None,44.85517009999603,45.15118249997613,45.41527369999676,45.65516729999217,45.92715949998819,46.20726489997469,2.0838560000120196,0.29601239998009987,0.2640912000206299,0.23989359999541193,0.27199219999602064,0.2801053999864962
146,10,0.0,3,False,0.0,None,right,False,2,1,0,enc,0,0,1,[],[],6,6,3 1 4 4 2 4,6,0.0,0.0,0.0,0.0,0.0,0.0,0,0.0,0.0,0.0,0.0,0.0
147,11,3.1360023000161164,3,True,0.5,acc,right,True,2,1,4,ret,1,4,1,"['3', '1', '4', '2', '3', '4']","[52.43118339998182, 52.82319239998469, 53.53518839998287, 54.591189500002656, 55.02311699997517, 55.567185699997935]",6,6,# # # # # #,None,52.43118339998182,52.82319239998469,53.53518839998287,54.591189500002656,55.02311699997517,55.567185699997935,-0.2760814999928698,0.3920090000028722,0.7119959999981802,1.0560011000197846,0.43192749997251667,0.5440687000227626
148,12,0.0,3,False,0.0,None,right,False,2,1,0,enc,0,0,0,[],[],6,6,3 4 1 3 4 2,6,0.0,0.0,0.0,0.0,0.0,0.0,0,0.0,0.0,0.0,0.0,0.0
149,13,2.4159173000080045,3,True,0.5,acc,right,True,2,1,2,ret,1,2,0,"['2', '4', '1', '3', '2', '4']","[62.88726349998615, 63.16730249999091, 63.72728729998926, 64.29508789998363, 64.99924389997614, 65.30318079999415]",6,6,# # # # # #,None,62.88726349998615,63.16730249999091,63.72728729998926,64.29508789998363,64.99924389997614,65.30318079999415,0.8200777999882121,0.2800390000047628,0.5599847999983467,0.5678005999943707,0.7041559999925084,0.3039369000180159
150,14,0.0,3,False,0.0,None,right,False,2,1,0,enc,0,0,0,[],[],6,6,1 2 1 3 1 1,6,0.0,0.0,0.0,0.0,0.0,0.0,0,0.0,0.0,0.0,0.0,0.0
151,15,2.5919877999986056,3,True,0.5,acc,right,False,2,1,6,ret,1,10,0,"['1', '1', '3', '1', '2', '1']","[72.26320970000234, 72.51915939999162, 72.83922029999667, 74.44730020000134, 74.6474149999849, 74.85519750000094]",6,6,# # # # # #,None,72.26320970000234,72.51915939999162,72.83922029999667,74.44730020000134,74.6474149999849,74.85519750000094,0.460028900008183,0.2559496999892872,0.3200609000050463,1.6080799000046682,0.20011479998356663,0.20778250001603737
152,16,0.0,2,False,0.0,None,right,False,2,1,0,enc,0,0,1,[],[],6,6,2 1 4 3 3 2,4,0.0,0.0,0.0,0.0,0.0,0.0,0,0.0,0.0,0.0,0.0,0.0
153,17,2.319920899986755,2,True,0.5,acc,right,False,2,1,6,ret,1,10,1,"['2', '1', '4', '3', '3', '2']","[83.70323429998825, 84.03117619999102, 84.74336559997755, 85.12726349997683, 85.73520159997861, 86.02315519997501]",6,6,# # # # # #,None,83.70323429998825,84.03117619999102,84.74336559997755,85.12726349997683,85.73520159997861,86.02315519997501,2.3480367999873124,0.3279419000027701,0.7121893999865279,0.38389789999928325,0.6079381000017747,0.28795359999639913
154,18,0.0,2,False,0.0,None,right,False,2,1,0,enc,0,0,0,[],[],6,6,1 4 4 1 2 3,4,0.0,0.0,0.0,0.0,0.0,0.0,0,0.0,0.0,0.0,0.0,0.0
155,19,4.6243315000028815,2,True,0.5,acc,right,True,2,1,3,ret,1,3,0,"['3', '2', '4', '4', '1', '4']","[94.86316529999021, 95.15117929998087, 96.46310679998714, 97.775276499975, 99.14316999999573, 99.4874967999931]",6,6,# # # # # #,None,94.86316529999021,95.15117929998087,96.46310679998714,97.775276499975,99.14316999999573,99.4874967999931,2.3400101000152063,0.28801399999065325,1.3119275000062771,1.3121696999878623,1.3678935000207275,0.3443267999973614
156,20,0.0,2,False,0.0,None,right,False,2,1,0,enc,0,0,0,[],[],6,6,2 1 2 3 4 4,4,0.0,0.0,0.0,0.0,0.0,0.0,0,0.0,0.0,0.0,0.0,0.0
157,21,2.199954900017474,2,True,0.5,acc,right,True,2,1,4,ret,1,4,0,"['4', '4', '3', '2', '2', '1']","[108.66320809998433, 108.99913599999854, 109.96721669999533, 110.20701789998566, 110.69511770000099, 110.8631630000018]",6,6,# # # # # #,None,108.66320809998433,108.99913599999854,109.96721669999533,110.20701789998566,110.69511770000099,110.8631630000018,2.675711299991235,0.33592790001421236,0.9680806999967899,0.23980119999032468,0.48809980001533404,0.16804530000081286
158,22,0.0,3,False,0.0,None,right,False,2,1,0,enc,0,0,0,[],[],6,6,3 1 3 4 2 3,6,0.0,0.0,0.0,0.0,0.0,0.0,0,0.0,0.0,0.0,0.0,0.0
159,23,2.872036099986872,3,True,0.5,acc,right,False,2,1,6,ret,1,10,0,"['3', '2', '4', '3', '1', '3']","[117.87120719999075, 118.20731359999627, 118.48727449998842, 120.13509139997768, 120.47124319997965, 120.74324329997762]",6,6,# # # # # #,None,117.87120719999075,118.20731359999627,118.48727449998842,120.13509139997768,120.47124319997965,120.74324329997762,0.5080441999889445,0.3361064000055194,0.27996089999214746,1.647816899989266,0.3361518000019714,0.2720000999979675
160,0,0.0,2,False,0.0,None,right,False,2,1,0,enc,0,0,1,[],[],7,6,2 4 4 2 1 3,4,0.0,0.0,0.0,0.0,0.0,0.0,0,0.0,0.0,0.0,0.0,0.0
161,1,1.9837507999909576,2,True,0.5,acc,right,False,2,1,6,ret,1,10,1,"['2', '4', '4', '2', '1', '3']","[6.61599049999495, 6.9998984999838285, 7.271793299994897, 8.199863499990897, 8.46402620000299, 8.599741299985908]",7,6,# # # # # #,None,6.61599049999495,6.9998984999838285,7.271793299994897,8.199863499990897,8.46402620000299,8.599741299985908,NaN,0.38390799998887815,0.2718948000110686,0.9280701999960002,0.2641627000120934,0.1357150999829173
162,2,0.0,3,False,0.0,None,right,False,2,1,0,enc,0,0,1,[],[],7,6,2 4 3 1 4 4,6,0.0,0.0,0.0,0.0,0.0,0.0,0,0.0,0.0,0.0,0.0,0.0
163,3,1.6958867000066675,3,True,0.5,acc,right,False,2,1,6,ret,1,10,1,"['2', '4', '3', '1', '4', '4']","[14.823906699981308, 15.143752899981337, 15.343785600009141, 16.143777799996315, 16.36795690000872, 16.519793399987975]",7,6,# # # # # #,None,14.823906699981308,15.143752899981337,15.343785600009141,16.143777799996315,16.36795690000872,16.519793399987975,-0.27583460000460036,0.31984620000002906,0.20003270002780482,0.7999921999871731,0.2241791000124067,0.15183649997925386
164,4,0.0,3,False,0.0,None,right,False,2,1,0,enc,0,0,1,[],[],7,6,3 3 4 4 4 1,6,0.0,0.0,0.0,0.0,0.0,0.0,0,0.0,0.0,0.0,0.0,0.0
165,5,1.0400196999835316,3,True,0.5,acc,right,False,2,1,6,ret,1,10,1,"['3', '3', '4', '4', '4', '1']","[22.687791000003926, 22.83978899999056, 23.03173859999515, 23.423825500009116, 23.58382790000178, 23.727810699987458]",7,6,# # # # # #,None,22.687791000003926,22.83978899999056,23.03173859999515,23.423825500009116,23.58382790000178,23.727810699987458,-0.3320023999840487,0.15199799998663366,0.19194960000459105,0.3920869000139646,0.1600023999926634,0.14398279998567887
166,6,0.0,2,False,0.0,None,right,False,2,1,0,enc,0,0,1,[],[],7,6,4 1 2 3 3 2,4,0.0,0.0,0.0,0.0,0.0,0.0,0,0.0,0.0,0.0,0.0,0.0
167,7,1.136194400023669,2,True,0.5,acc,right,False,2,1,6,ret,1,10,1,"['4', '1', '2', '3', '3', '2']","[32.05582029998186, 32.31996029999573, 32.56783899999573, 32.79186299999128, 32.99166259999038, 33.19201470000553]",7,6,# # # # # #,None,32.05582029998186,32.31996029999573,32.56783899999573,32.79186299999128,32.99166259999038,33.19201470000553,1.8280095999944024,0.2641400000138674,0.24787870000000112,0.224023999995552,0.19979959999909624,0.20035210001515225
168,8,0.0,3,False,0.0,None,right,False,2,1,0,enc,0,0,0,[],[],7,6,3 4 2 1 2 2,6,0.0,0.0,0.0,0.0,0.0,0.0,0,0.0,0.0,0.0,0.0,0.0
169,9,3.688016300002346,3,True,0.5,acc,right,True,2,1,4,ret,1,4,0,"['2', '2', '1', '2', '3', '4']","[39.983781799994176, 40.151872099988395, 40.447898999991594, 41.73580199998105, 43.33581960000447, 43.67179809999652]",7,6,# # # # # #,None,39.983781799994176,40.151872099988395,40.447898999991594,41.73580199998105,43.33581960000447,43.67179809999652,0.2917670999886468,0.1680902999942191,0.29602690000319853,1.2879029999894556,1.6000176000234205,0.3359784999920521
170,10,0.0,2,False,0.0,None,right,False,2,1,0,enc,0,0,0,[],[],7,6,4 4 3 4 3 3,4,0.0,0.0,0.0,0.0,0.0,0.0,0,0.0,0.0,0.0,0.0,0.0
171,11,3.2320038999896497,2,True,0.5,acc,right,False,2,1,6,ret,1,10,0,"['3', '3', '4', '3', '4', '4']","[51.97581740000169, 52.38381070000469, 53.70383670000592, 53.94378579998738, 55.0318649999972, 55.20782129999134]",7,6,# # # # # #,None,51.97581740000169,52.38381070000469,53.70383670000592,53.94378579998738,55.0318649999972,55.20782129999134,1.8040193000051659,0.4079933000029996,1.320026000001235,0.23994909998145886,1.0880792000098154,0.17595629999414086
172,12,0.0,2,False,0.0,None,right,False,2,1,0,enc,0,0,0,[],[],7,6,4 1 4 1 4 2,4,0.0,0.0,0.0,0.0,0.0,0.0,0,0.0,0.0,0.0,0.0,0.0
173,13,4.504062099993462,2,True,0.5,acc,right,True,2,1,4,ret,1,4,0,"['2', '3', '4', '4', '1', '4']","[64.03181809998932, 64.31970429999637, 65.91984590000357, 67.21582009998383, 68.2318030000024, 68.53588019998278]",7,6,# # # # # #,None,64.03181809998932,64.31970429999637,65.91984590000357,67.21582009998383,68.2318030000024,68.53588019998278,2.3239967999979854,0.28788620000705123,1.6001416000071913,1.2959741999802645,1.015982900018571,0.30407719998038374
174,14,0.0,3,False,0.0,None,right,False,2,1,0,enc,0,0,1,[],[],7,6,2 1 4 3 1 2,6,0.0,0.0,0.0,0.0,0.0,0.0,0,0.0,0.0,0.0,0.0,0.0
175,15,2.687915699993028,3,True,0.5,acc,right,False,2,1,6,ret,1,10,1,"['2', '1', '4', '3', '1', '2']","[74.95187140000053, 75.863812399999, 76.24778330000117, 77.0798131999909, 77.43976519998978, 77.63978709999355]",7,6,# # # # # #,None,74.95187140000053,75.863812399999,76.24778330000117,77.0798131999909,77.43976519998978,77.63978709999355,-0.08400879998225719,0.9119409999984782,0.3839709000021685,0.8320298999897204,0.3599519999988843,0.20002190000377595
176,16,0.0,2,False,0.0,None,right,False,2,1,0,enc,0,0,0,[],[],7,6,4 4 4 2 4 2,4,0.0,0.0,0.0,0.0,0.0,0.0,0,0.0,0.0,0.0,0.0,0.0
177,17,1.4960841000138316,2,True,0.5,acc,right,False,2,1,6,ret,1,10,0,"['2', '4', '2', '4', '4', '4']","[86.24773989999085, 86.47183140000561, 86.69582130000344, 86.97578129998874, 87.51980469998671, 87.74382400000468]",7,6,# # # # # #,None,86.24773989999085,86.47183140000561,86.69582130000344,86.97578129998874,87.51980469998671,87.74382400000468,2.1079527999972925,0.2240915000147652,0.22398989999783225,0.2799599999852944,0.5440233999979682,0.22401930001797155
178,18,0.0,3,False,0.0,None,right,False,2,1,0,enc,0,0,0,[],[],7,6,3 1 4 4 2 4,6,0.0,0.0,0.0,0.0,0.0,0.0,0,0.0,0.0,0.0,0.0,0.0
179,19,3.3919164999970235,3,True,0.5,acc,right,True,2,1,4,ret,1,4,0,"['4', '2', '4', '4', '3', '1']","[96.63994100000127, 96.85579959998722, 97.06379240000388, 99.22379869999713, 99.79179339998518, 100.0318574999983]",7,6,# # # # # #,None,96.63994100000127,96.85579959998722,97.06379240000388,99.22379869999713,99.79179339998518,100.0318574999983,2.396116999996593,0.2158585999859497,0.20799280001665466,2.160006299993256,0.5679946999880485,0.2400641000131145
180,20,0.0,3,False,0.0,None,right,False,2,1,0,enc,0,0,0,[],[],7,6,1 4 2 2 3 4,6,0.0,0.0,0.0,0.0,0.0,0.0,0,0.0,0.0,0.0,0.0,0.0
181,21,2.6483102999918637,3,True,0.5,acc,right,True,2,1,3,ret,1,3,0,"['4', '3', '2', '4', '1', '3']","[107.1038203999924, 107.40830999999889, 107.68778939999174, 108.89580539998133, 109.63181659998372, 109.75213069998426]",7,6,# # # # # #,None,107.1038203999924,107.40830999999889,107.68778939999174,108.89580539998133,109.63181659998372,109.75213069998426,0.5719628999941051,0.30448960000649095,0.27947939999285154,1.208015999989584,0.7360112000023946,0.12031410000054166
182,22,0.0,2,False,0.0,None,right,False,2,1,0,enc,0,0,1,[],[],7,6,1 1 2 1 1 3,4,0.0,0.0,0.0,0.0,0.0,0.0,0,0.0,0.0,0.0,0.0,0.0
183,23,1.5437618000141808,2,True,0.5,acc,right,False,2,1,6,ret,1,10,1,"['1', '1', '2', '1', '1', '3']","[118.88802899999428, 119.15982060000533, 119.70386059998418, 119.91985159998876, 120.29561559998547, 120.43179080000846]",7,6,# # # # # #,None,118.88802899999428,119.15982060000533,119.70386059998418,119.91985159998876,120.29561559998547,120.43179080000846,2.6358983000100125,0.2717916000110563,0.5440399999788497,0.21599100000457838,0.37576399999670684,0.13617520002298988
184,0,0.0,2,False,0.0,None,right,False,2,1,0,enc,0,0,1,[],[],8,6,4 2 3 2 2 2,4,0.0,0.0,0.0,0.0,0.0,0.0,0,0.0,0.0,0.0,0.0,0.0
185,1,1.2639716000121552,2,True,0.5,acc,right,False,2,1,6,ret,1,10,1,"['4', '2', '3', '2', '2', '2']","[7.577507799986051, 7.905431599996518, 8.249601899995469, 8.473626699997112, 8.673551899992162, 8.841479399998207]",8,6,# # # # # #,None,7.577507799986051,7.905431599996518,8.249601899995469,8.473626699997112,8.673551899992162,8.841479399998207,NaN,0.32792380001046695,0.3441702999989502,0.2240248000016436,0.1999251999950502,0.16792750000604428
186,2,0.0,2,False,0.0,None,right,False,2,1,0,enc,0,0,1,[],[],8,6,1 1 1 3 1 4,4,0.0,0.0,0.0,0.0,0.0,0.0,0,0.0,0.0,0.0,0.0,0.0
187,3,1.1600519000203349,2,True,0.5,acc,right,False,2,1,6,ret,1,10,1,"['1', '1', '1', '3', '1', '4']","[17.11348519998137, 17.313540999981342, 17.529546299978392, 17.74555269998382, 18.001524499995867, 18.273537100001704]",8,6,# # # # # #,None,17.11348519998137,17.313540999981342,17.529546299978392,17.74555269998382,18.001524499995867,18.273537100001704,1.7720057999831624,0.2000557999999728,0.21600529999705032,0.21600640000542626,0.25597180001204833,0.27201260000583716
188,4,0.0,2,False,0.0,None,right,False,2,1,0,enc,0,0,0,[],[],8,6,2 1 2 1 3 4,4,0.0,0.0,0.0,0.0,0.0,0.0,0,0.0,0.0,0.0,0.0,0.0
189,5,1.7919093999953477,2,True,0.5,acc,right,False,2,1,6,ret,1,10,0,"['4', '3', '1', '2', '1', '2']","[26.95360839998466, 27.24147899998934, 28.121615399984876, 28.369523199973628, 28.553505499992752, 28.745517799980007]",8,6,# # # # # #,None,26.95360839998466,27.24147899998934,28.121615399984876,28.369523199973628,28.553505499992752,28.745517799980007,2.1800712999829557,0.28787060000468045,0.8801363999955356,0.24790779998875223,0.18398230001912452,0.19201229998725466
190,6,0.0,2,False,0.0,None,right,False,2,1,0,enc,0,0,1,[],[],8,6,1 3 1 4 2 3,4,0.0,0.0,0.0,0.0,0.0,0.0,0,0.0,0.0,0.0,0.0,0.0
191,7,1.160010699997656,2,True,0.5,acc,right,False,2,1,6,ret,1,10,1,"['1', '3', '1', '4', '2', '3']","[37.345502099982696, 37.5457233999914, 37.8256063000008, 38.04950860000099, 38.30559309999808, 38.50551279998035]",8,6,# # # # # #,None,37.345502099982696,37.5457233999914,37.8256063000008,38.04950860000099,38.30559309999808,38.50551279998035,2.0999843000026885,0.20022130000870675,0.2798829000093974,0.22390230000019073,0.2560844999970868,0.19991969998227432
192,8,0.0,3,False,0.0,None,right,False,2,1,0,enc,0,0,1,[],[],8,6,1 4 3 3 2 2,6,0.0,0.0,0.0,0.0,0.0,0.0,0,0.0,0.0,0.0,0.0,0.0
193,9,1.1839753999956883,3,True,0.5,acc,right,False,2,1,6,ret,1,10,1,"['1', '4', '3', '3', '2', '2']","[44.7615303999919, 45.00158559999545, 45.26552349998383, 45.58562329999404, 45.79362859998946, 45.945505799987586]",8,6,# # # # # #,None,44.7615303999919,45.00158559999545,45.26552349998383,45.58562329999404,45.79362859998946,45.945505799987586,-0.24398239998845384,0.24005520000355318,0.26393789998837747,0.32009980001021177,0.2080052999954205,0.15187719999812543
194,10,0.0,2,False,0.0,None,right,False,2,1,0,enc,0,0,0,[],[],8,6,4 3 3 4 4 1,4,0.0,0.0,0.0,0.0,0.0,0.0,0,0.0,0.0,0.0,0.0,0.0
195,11,1.8319434000004549,2,True,0.5,acc,right,True,2,1,3,ret,1,3,0,"['1', '4', '3', '2', '3', '2']","[54.60953219997464, 54.88951019998058, 55.55364469997585, 55.84158149998984, 56.16151369997533, 56.44147559997509]",8,6,# # # # # #,None,54.60953219997464,54.88951019998058,55.55364469997585,55.84158149998984,56.16151369997533,56.44147559997509,2.1640263999870513,0.27997800000594,0.6641344999952707,0.2879368000139948,0.3199321999854874,0.27996189999976195
196,12,0.0,2,False,0.0,None,right,False,2,1,0,enc,0,0,0,[],[],8,6,3 1 3 2 4 2,4,0.0,0.0,0.0,0.0,0.0,0.0,0,0.0,0.0,0.0,0.0,0.0
197,13,4.103885199991055,2,True,0.5,acc,right,True,2,1,3,ret,1,3,0,"['2', '4', '3', '3', '2', '1']","[65.00959929998498, 65.21753169997828, 66.60945059999358, 67.32209869998042, 68.84152919999906, 69.11348449997604]",8,6,# # # # # #,None,65.00959929998498,65.21753169997828,66.60945059999358,67.32209869998042,68.84152919999906,69.11348449997604,2.0681237000098918,0.2079323999932967,1.3919189000152983,0.7126480999868363,1.5194305000186432,0.2719552999769803
198,14,0.0,3,False,0.0,None,right,False,2,1,0,enc,0,0,1,[],[],8,6,1 3 2 3 3 3,6,0.0,0.0,0.0,0.0,0.0,0.0,0,0.0,0.0,0.0,0.0,0.0
199,15,0.7840018999995664,3,True,0.5,acc,right,False,2,1,6,ret,1,10,1,"['1', '3', '2', '3', '3', '3']","[75.4015398999909, 75.53749199997401, 75.6975276999874, 75.8815035999869, 76.03355019999435, 76.18554179999046]",8,6,# # # # # #,None,75.4015398999909,75.53749199997401,75.6975276999874,75.8815035999869,76.03355019999435,76.18554179999046,-0.21194459998514503,0.13595209998311475,0.1600357000133954,0.1839758999994956,0.15204660000745207,0.15199159999610856
200,16,0.0,3,False,0.0,None,right,False,2,1,0,enc,0,0,1,[],[],8,6,4 2 4 4 2 4,6,0.0,0.0,0.0,0.0,0.0,0.0,0,0.0,0.0,0.0,0.0,0.0
201,17,0.9359956000116654,3,True,0.5,acc,right,False,2,1,6,ret,1,10,1,"['4', '2', '4', '4', '2', '4']","[82.51351219997741, 82.68151249998482, 82.86548459998448, 83.12946499997634, 83.30558249997557, 83.44950779998908]",8,6,# # # # # #,None,82.51351219997741,82.68151249998482,82.86548459998448,83.12946499997634,83.30558249997557,83.44950779998908,-0.17202960001304746,0.16800030000740662,0.18397209999966435,0.2639803999918513,0.17611749999923632,0.14392530001350679
202,18,0.0,3,False,0.0,None,right,False,2,1,0,enc,0,0,0,[],[],8,6,1 2 2 3 1 1,6,0.0,0.0,0.0,0.0,0.0,0.0,0,0.0,0.0,0.0,0.0,0.0
203,19,4.632025800005067,3,True,0.5,acc,right,True,2,1,4,ret,1,4,0,"['1', '1', '2', '2', '1', '1']","[89.60144569998374, 89.80150249999133, 90.08939959999407, 92.50551749998704, 94.01750399998855, 94.23347149998881]",8,6,# # # # # #,None,89.60144569998374,89.80150249999133,90.08939959999407,92.50551749998704,94.01750399998855,94.23347149998881,-0.3480621000053361,0.2000568000075873,0.2878971000027377,2.416117899992969,1.5119865000015125,0.21596750000026077
204,20,0.0,3,False,0.0,None,right,False,2,1,0,enc,0,0,0,[],[],8,6,2 3 1 1 3 4,6,0.0,0.0,0.0,0.0,0.0,0.0,0,0.0,0.0,0.0,0.0,0.0
205,21,3.7039834999886807,3,True,0.5,acc,right,True,2,1,4,ret,1,4,0,"['4', '3', '1', '4', '3', '1']","[101.2576018999971, 101.58556339997449, 101.92150359999505, 103.90551699997741, 104.36165439998149, 104.96158539998578]",8,6,# # # # # #,None,101.2576018999971,101.58556339997449,101.92150359999505,103.90551699997741,104.36165439998149,104.96158539998578,0.5241304000082891,0.3279614999773912,0.33594020002055913,1.9840133999823593,0.45613740000408143,0.5999310000042897
206,22,0.0,3,False,0.0,None,right,False,2,1,0,enc,0,0,0,[],[],8,6,4 3 2 2 1 3,6,0.0,0.0,0.0,0.0,0.0,0.0,0,0.0,0.0,0.0,0.0,0.0
207,23,2.671979099977761,3,True,0.5,acc,right,True,2,1,3,ret,1,3,0,"['3', '1', '2', '4', '2', '3']","[111.63353120000102, 111.8575113999832, 112.62559189999592, 113.70550369998091, 114.11348839997663, 114.30551029997878]",8,6,# # # # # #,None,111.63353120000102,111.8575113999832,112.62559189999592,113.70550369998091,114.11348839997663,114.30551029997878,0.17194580001523718,0.22398019998217933,0.7680805000127293,1.079911799984984,0.4079846999957226,0.19202190000214614
