,MT,Unnamed: 0,Unnamed: 0.1,Unnamed: 0.1.1,Unnamed: 0.1.1.1,Unnamed: 0.1.1.1.1,Unnamed: 0.1.1.1.1.1,Unnamed: 0.1.1.1.1.1.1,Unnamed: 0.1.1.1.1.1.1.1,Unnamed: 0.1.1.1.1.1.1.1.1,chunk,display_trial_feedback,feedback_dur,feedback_type,hand,is_error,item_dur,iti_dur,number_correct,phase,phase_type,points,recall_dir,response,response_time,run_number,seq_length,seq_str,trial_dur
0,0.0,0,0.0,0.0,0.0,0.0,0.0,0.0,0.0,0.0,3,False,0.0,None,right,False,2,1,0,enc,0,0,1,[],[],1,6,2 2 2 4 4 3,6
1,2.440051799989305,1,1.0,1.0,1.0,1.0,1.0,1.0,1.0,1.0,3,True,0.5,acc,right,False,2,1,6,ret,1,10,1,"['2', '2', '2', '4', '4', '3']","[6.4557695999974385, 6.631849700002931, 6.815754399984144, 8.199887199996738, 8.551852900011, 8.895821399986744]",1,6,# # # # # #,None
2,0.0,2,2.0,2.0,2.0,2.0,2.0,2.0,2.0,2.0,3,False,0.0,None,right,False,2,1,0,enc,0,0,1,[],[],1,6,1 3 1 3 1 2,6
3,2.304736199992476,3,3.0,3.0,3.0,3.0,3.0,3.0,3.0,3.0,3,True,0.5,acc,right,True,2,1,4,ret,1,4,1,"['1', '3', '1', '1', '3', '2']","[15.599640300002648, 15.911751400009962, 16.215636599983554, 16.991816599998856, 17.735944699990796, 17.904376499995124]",1,6,# # # # # #,None
4,0.0,4,4.0,4.0,4.0,4.0,4.0,4.0,4.0,4.0,3,False,0.0,None,right,False,2,1,0,enc,0,0,0,[],[],1,6,4 1 4 3 4 3,6
5,4.631985200016062,5,5.0,5.0,5.0,5.0,5.0,5.0,5.0,5.0,3,True,0.5,acc,right,True,2,1,5,ret,1,5,0,"['3', '2', '3', '4', '1', '4']","[26.31186779998825, 27.015792899997905, 28.095625699992524, 29.839612000010675, 30.623792099999264, 30.94385300000431]",1,6,# # # # # #,None
6,0.0,6,6.0,6.0,6.0,6.0,6.0,6.0,6.0,6.0,2,False,0.0,None,right,False,2,1,0,enc,0,0,1,[],[],1,6,4 3 4 1 4 4,4
7,2.1599336999934167,7,7.0,7.0,7.0,7.0,7.0,7.0,7.0,7.0,2,True,0.5,acc,right,False,2,1,6,ret,1,10,1,"['4', '3', '4', '1', '4', '4']","[40.599839500006055, 41.2797838000115, 41.78381620001164, 42.199781600007555, 42.5038011999859, 42.75977319999947]",1,6,# # # # # #,None
8,0.0,8,8.0,8.0,8.0,8.0,8.0,8.0,8.0,8.0,2,False,0.0,None,right,False,2,1,0,enc,0,0,0,[],[],1,6,4 1 3 3 1 4,4
9,3.5438686000125017,9,9.0,9.0,9.0,9.0,9.0,9.0,9.0,9.0,2,True,0.5,acc,right,False,2,1,6,ret,1,10,0,"['4', '1', '3', '3', '1', '4']","[51.887994099990465, 52.2798666000017, 52.855879799986724, 53.18383819999872, 55.159919400000945, 55.43186270000297]",1,6,# # # # # #,None
10,0.0,10,10.0,10.0,10.0,10.0,10.0,10.0,10.0,10.0,2,False,0.0,None,right,False,2,1,0,enc,0,0,0,[],[],1,6,1 3 4 2 2 2,4
11,4.791960799979279,11,11.0,11.0,11.0,11.0,11.0,11.0,11.0,11.0,2,True,0.5,acc,right,True,2,1,2,ret,1,2,0,"['2', '2', '3', '2', '1', '4']","[64.76782790001016, 65.02395709999837, 66.62404369999422, 66.975876099983, 69.15184790000785, 69.55978869998944]",1,6,# # # # # #,None
12,0.0,12,12.0,12.0,12.0,12.0,12.0,12.0,12.0,12.0,3,False,0.0,None,right,False,2,1,0,enc,0,0,0,[],[],1,6,4 1 1 1 4 3,6
13,5.240000799996778,13,13.0,13.0,13.0,13.0,13.0,13.0,13.0,13.0,3,True,0.5,acc,right,True,2,1,3,ret,1,3,0,"['3', '4', '1', '3', '2', '1']","[77.03983069999958, 77.79978400000255, 78.22393440001179, 79.84821520000696, 81.95192669998505, 82.27983149999636]",1,6,# # # # # #,None
14,0.0,14,14.0,14.0,14.0,14.0,14.0,14.0,14.0,14.0,2,False,0.0,None,right,False,2,1,0,enc,0,0,1,[],[],1,6,1 2 3 4 3 1,4
15,1.4399466999748256,15,15.0,15.0,15.0,15.0,15.0,15.0,15.0,15.0,2,True,0.5,acc,right,False,2,1,6,ret,1,10,1,"['1', '2', '3', '4', '3', '1']","[91.13589060000959, 91.40790459999698, 91.65584920000401, 91.96793859999161, 92.27992679999443, 92.57583729998441]",1,6,# # # # # #,None
16,0.0,16,16.0,16.0,16.0,16.0,16.0,0.0,0.0,,3,False,0.0,None,right,False,2,1,0,enc,0,0,1,[],[],1,6,4 2 2 1 1 2,6
17,1.4399294999893757,17,17.0,17.0,17.0,17.0,17.0,1.0,1.0,,3,True,0.5,acc,right,False,2,1,6,ret,1,10,1,"['4', '2', '2', '1', '1', '2']","[5.244663999998011, 5.44451349999872, 5.644594999990659, 6.316580599988811, 6.516515399998752, 6.684593499987386]",1,6,# # # # # #,None
18,0.0,18,18.0,18.0,18.0,18.0,18.0,2.0,2.0,,3,False,0.0,None,right,False,2,1,0,enc,0,0,1,[],[],1,6,3 3 2 2 3 3,6
19,1.4640513999911493,19,19.0,19.0,19.0,19.0,19.0,3.0,3.0,,3,True,0.5,acc,right,False,2,1,6,ret,1,10,1,"['3', '3', '2', '2', '3', '3']","[13.108541499997955, 13.292648000002373, 13.596485499991104, 14.220523900003172, 14.404563999996753, 14.572592899989104]",1,6,# # # # # #,None
20,0.0,20,20.0,20.0,20.0,20.0,20.0,4.0,4.0,,2,False,0.0,None,right,False,2,1,0,enc,0,0,0,[],[],1,6,1 4 4 2 2 1,4
21,4.711864099983359,21,21.0,21.0,21.0,21.0,21.0,5.0,5.0,,2,True,0.5,acc,right,True,2,1,2,ret,1,2,0,"['1', '2', '4', '2', '1', '2']","[23.900628800009144, 24.260592200007522, 25.96458430000348, 26.956555999990087, 28.332539900002303, 28.612492899992503]",1,6,# # # # # #,None
22,0.0,22,22.0,22.0,22.0,22.0,22.0,6.0,6.0,,3,False,0.0,None,right,False,2,1,0,enc,0,0,0,[],[],1,6,2 3 3 2 4 1,6
23,5.720091199997113,23,23.0,23.0,23.0,23.0,23.0,7.0,7.0,,3,True,0.5,acc,right,True,2,1,3,ret,1,3,0,"['2', '4', '2', '3', '2', '1']","[35.13245309999911, 38.100535400008084, 38.52458070000284, 39.9244902000064, 40.492518599989126, 40.852544299996225]",1,6,# # # # # #,None
24,0.0,24,24.0,24.0,24.0,24.0,24.0,8.0,8.0,,2,False,0.0,None,right,False,2,1,0,enc,0,0,0,[],[],1,6,4 3 2 1 3 4,4
25,6.3202605000115,25,25.0,25.0,25.0,25.0,25.0,9.0,9.0,,2,True,0.5,acc,right,True,2,1,2,ret,1,2,0,"['4', '3', '4', '3', '2', '1']","[50.46838239999488, 51.076538399996934, 54.24445060000289, 55.20453859999543, 56.42855499999132, 56.78864290000638]",1,6,# # # # # #,None
26,0.0,26,26.0,26.0,26.0,26.0,26.0,10.0,10.0,,2,False,0.0,None,right,False,2,1,0,enc,0,0,1,[],[],1,6,4 3 3 1 1 2,4
27,3.7438492999935984,27,27.0,27.0,27.0,27.0,27.0,11.0,11.0,,2,True,0.5,acc,right,True,2,1,3,ret,1,3,1,"['4', '3', '2', '1', '4', '1']","[65.65264210000169, 66.44451259999187, 67.1325266000058, 67.67659049999202, 68.85253390000435, 69.39649139999528]",1,6,# # # # # #,None
28,0.0,28,28.0,28.0,28.0,28.0,28.0,12.0,12.0,,3,False,0.0,None,right,False,2,1,0,enc,0,0,0,[],[],1,6,2 3 4 2 2 1,6
29,3.1360838999971747,29,29.0,29.0,29.0,29.0,29.0,13.0,13.0,,3,True,0.5,acc,right,False,2,1,6,ret,1,10,0,"['1', '2', '2', '4', '3', '2']","[76.81241340000997, 77.10054340001079, 77.44452299998375, 79.48452769999858, 79.73253010000917, 79.94849730000715]",1,6,# # # # # #,None
30,0.0,30,30.0,30.0,30.0,30.0,30.0,14.0,14.0,,2,False,0.0,None,right,False,2,1,0,enc,0,0,1,[],[],1,6,4 2 3 4 2 1,4
31,3.127852500008885,31,31.0,31.0,31.0,31.0,31.0,15.0,15.0,,2,True,0.5,acc,right,True,2,1,5,ret,1,5,1,"['3', '2', '3', '4', '2', '1']","[88.8286584999878, 89.75651929999003, 90.24451230000705, 90.87660129999858, 91.64452490000986, 91.95651099999668]",1,6,# # # # # #,None
32,0.0,32,32.0,32.0,32.0,32.0,32.0,16.0,16.0,,2,False,0.0,None,right,False,2,1,0,enc,0,0,1,[],[],1,6,1 4 1 3 2 4,4
33,2.0079368000151594,33,33.0,33.0,33.0,33.0,33.0,17.0,17.0,,2,True,0.5,acc,right,False,2,1,6,ret,1,10,1,"['1', '4', '1', '3', '2', '4']","[100.72457749999012, 101.02866260000155, 101.55647479998879, 101.90055289998418, 102.29261440000846, 102.73251430000528]",1,6,# # # # # #,None
34,0.0,34,34.0,34.0,34.0,34.0,34.0,18.0,18.0,,3,False,0.0,None,right,False,2,1,0,enc,0,0,0,[],[],1,6,2 3 3 3 3 4,6
35,4.960062500002097,35,35.0,35.0,35.0,35.0,35.0,19.0,19.0,,3,True,0.5,acc,right,True,2,1,5,ret,1,5,0,"['4', '3', '3', '3', '3', '1']","[109.37254189999658, 109.66052279999712, 110.02852079999866, 112.42052879999392, 113.74055220000446, 114.33260439999867]",1,6,# # # # # #,None
36,0.0,36,36.0,36.0,36.0,36.0,36.0,20.0,20.0,,3,False,0.0,None,right,False,2,1,0,enc,0,0,1,[],[],1,6,1 1 3 2 2 4,6
37,1.400099799997406,37,37.0,37.0,37.0,37.0,37.0,21.0,21.0,,3,True,0.5,acc,right,True,2,1,5,ret,1,5,1,"['1', '3', '3', '2', '2', '4']","[120.82851510000182, 121.02051679999568, 121.2045713000116, 121.70051619998412, 121.96459300001152, 122.22861489999923]",1,6,# # # # # #,None
38,0.0,38,38.0,38.0,38.0,38.0,38.0,22.0,22.0,,2,False,0.0,None,right,False,2,1,0,enc,0,0,0,[],[],1,6,4 1 1 1 4 4,4
39,4.744123800017405,39,39.0,39.0,39.0,39.0,39.0,23.0,23.0,,2,True,0.5,acc,right,True,2,1,3,ret,1,3,0,"['4', '4', '4', '1', '3', '1']","[130.8604023999942, 131.20450900000287, 132.15659379999852, 133.62048330000835, 135.23657320000348, 135.6045262000116]",1,6,# # # # # #,None
40,0.0,40,40.0,40.0,40.0,40.0,0.0,0.0,,,3,False,0.0,None,right,False,2,1,0,enc,0,0,1,[],[],2,6,3 2 2 3 2 3,6
41,2.184126699983608,41,41.0,41.0,41.0,41.0,1.0,1.0,,,3,True,0.5,acc,right,True,2,1,4,ret,1,4,1,"['3', '2', '2', '3', '3', '2']","[4.662126700015506, 4.934172600012971, 5.23819580001873, 5.542229100014083, 6.566122400021413, 6.846253399999114]",2,6,# # # # # #,None
42,0.0,42,42.0,42.0,42.0,42.0,2.0,2.0,,,2,False,0.0,None,right,False,2,1,0,enc,0,0,1,[],[],2,6,2 4 4 4 4 1,4
43,2.2319317999936166,43,43.0,43.0,43.0,43.0,3.0,3.0,,,2,True,0.5,acc,right,False,2,1,6,ret,1,10,1,"['2', '4', '4', '4', '4', '1']","[15.166220300015993, 15.92622590000974, 16.262184200022602, 16.63807159999851, 17.046199900010834, 17.39815210000961]",2,6,# # # # # #,None
44,0.0,44,44.0,44.0,44.0,44.0,4.0,4.0,,,3,False,0.0,None,right,False,2,1,0,enc,0,0,1,[],[],2,6,1 4 1 4 4 3,6
45,2.7281129000184587,45,45.0,45.0,45.0,45.0,5.0,5.0,,,3,True,0.5,acc,right,True,2,1,3,ret,1,3,1,"['1', '4', '4', '4', '3', '1']","[23.81426929999725, 24.13416060002055, 24.47016349999467, 24.9582320000045, 26.00615560001461, 26.54238220001571]",2,6,# # # # # #,None
46,0.0,46,46.0,46.0,46.0,46.0,6.0,6.0,,,3,False,0.0,None,right,False,2,1,0,enc,0,0,0,[],[],2,6,1 3 1 3 1 3,6
47,3.2800355000072163,47,47.0,47.0,47.0,47.0,7.0,7.0,,,3,True,0.5,acc,right,True,2,1,4,ret,1,4,0,"['3', '1', '3', '3', '1', '1']","[33.84615440000198, 34.33412810001755, 34.81414120001136, 36.10219140001573, 36.67013240000233, 37.126189900009194]",2,6,# # # # # #,None
48,0.0,48,48.0,48.0,48.0,48.0,8.0,8.0,,,2,False,0.0,None,right,False,2,1,0,enc,0,0,0,[],[],2,6,2 1 4 4 4 2,4
49,4.0719209999952,49,49.0,49.0,49.0,49.0,9.0,9.0,,,2,True,0.5,acc,right,True,2,1,4,ret,1,4,0,"['2', '4', '4', '4', '4', '1']","[45.99822900001891, 46.55810640001437, 48.21413979999488, 48.53418600000441, 49.798148700007005, 50.07015000001411]",2,6,# # # # # #,None
50,0.0,50,50.0,50.0,50.0,50.0,10.0,10.0,,,3,False,0.0,None,right,False,2,1,0,enc,0,0,0,[],[],2,6,3 3 4 1 2 3,6
51,3.1920290999987637,51,51.0,51.0,51.0,51.0,11.0,11.0,,,3,True,0.5,acc,right,True,2,1,4,ret,1,4,0,"['3', '2', '1', '4', '4', '1']","[56.63008590001846, 56.77418840001337, 57.046154800016666, 58.6462240999972, 58.94220280001173, 59.82211500001722]",2,6,# # # # # #,None
52,0.0,52,52.0,52.0,52.0,52.0,12.0,12.0,,,2,False,0.0,None,right,False,2,1,0,enc,0,0,0,[],[],2,6,4 2 2 2 3 1,4
53,3.4639169999863952,53,53.0,53.0,53.0,53.0,13.0,13.0,,,2,True,0.5,acc,right,True,2,1,3,ret,1,3,0,"['1', '3', '4', '4', '4', '4']","[69.21424230001867, 69.70214249999844, 70.47021290002158, 71.14222320000408, 71.82215880000149, 72.67815930000506]",2,6,# # # # # #,None
54,0.0,54,54.0,54.0,54.0,54.0,14.0,14.0,,,3,False,0.0,None,right,False,2,1,0,enc,0,0,1,[],[],2,6,3 2 2 1 1 4,6
55,1.3759653000161052,55,55.0,55.0,55.0,55.0,15.0,15.0,,,3,True,0.5,acc,right,False,2,1,6,ret,1,10,1,"['3', '2', '2', '1', '1', '4']","[79.06215189999784, 79.28605850000167, 79.51014369999757, 80.04612939999788, 80.24613139999565, 80.43811720001395]",2,6,# # # # # #,None
56,0.0,56,56.0,56.0,56.0,56.0,16.0,16.0,,,2,False,0.0,None,right,False,2,1,0,enc,0,0,0,[],[],2,6,4 3 2 1 2 2,4
57,5.31194789998699,57,57.0,57.0,57.0,57.0,17.0,17.0,,,2,True,0.5,acc,right,True,2,1,2,ret,1,2,0,"['4', '2', '2', '1', '3', '2']","[89.41416020001634, 91.21410660000402, 91.41408899999806, 94.1982405000017, 94.5342150000215, 94.72610810000333]",2,6,# # # # # #,None
58,0.0,58,58.0,58.0,58.0,58.0,18.0,18.0,,,2,False,0.0,None,right,False,2,1,0,enc,0,0,1,[],[],2,6,3 1 4 4 2 3,4
59,1.8880489000002847,59,59.0,59.0,59.0,59.0,19.0,19.0,,,2,True,0.5,acc,right,False,2,1,6,ret,1,10,1,"['3', '1', '4', '4', '2', '3']","[103.27014700000291, 103.67822940001497, 104.2941800999979, 104.64614990001428, 104.95021340000676, 105.1581959000032]",2,6,# # # # # #,None
60,0.0,60,60.0,60.0,60.0,60.0,20.0,20.0,,,3,False,0.0,None,right,False,2,1,0,enc,0,0,0,[],[],2,6,1 1 4 4 3 2,6
61,3.8799024999898393,61,61.0,61.0,61.0,61.0,21.0,21.0,,,3,True,0.5,acc,right,False,2,1,6,ret,1,10,0,"['2', '3', '4', '4', '1', '1']","[113.6941529000178, 114.01420480001252, 114.34221210001851, 117.16613040000084, 117.39012830000138, 117.57405540000764]",2,6,# # # # # #,None
62,0.0,62,62.0,62.0,62.0,62.0,22.0,22.0,,,2,False,0.0,None,right,False,2,1,0,enc,0,0,1,[],[],2,6,4 2 1 2 4 1,4
63,3.448506799992174,63,63.0,63.0,63.0,63.0,23.0,23.0,,,2,True,0.5,acc,right,True,2,1,3,ret,1,3,1,"['4', '1', '1', '2', '1', '4']","[127.63815070001874, 128.00607840000885, 129.5021306000126, 129.88609220000217, 130.81414689999656, 131.08665750001092]",2,6,# # # # # #,None
64,0.0,64,64.0,64.0,64.0,0.0,0.0,,,,2,False,0.0,None,right,False,2,1,0,enc,0,0,1,[],[],3,6,1 3 3 1 2 3,4
65,16.419047000003047,65,65.0,65.0,65.0,1.0,1.0,,,,2,True,0.5,acc,right,True,2,1,4,ret,1,4,1,"['m', '1', '3', '1', '2', '3']","[-6.173470800014911, 7.773455599992303, 8.0933631999942, 9.429389600001741, 9.78148110001348, 10.245576199988136]",3,6,# # # # # #,None
66,0.0,66,66.0,66.0,66.0,2.0,2.0,,,,3,False,0.0,None,right,False,2,1,0,enc,0,0,0,[],[],3,6,2 3 1 2 2 1,6
67,2.7283567000122275,67,67.0,67.0,67.0,3.0,3.0,,,,3,True,0.5,acc,right,True,2,1,4,ret,1,4,0,"['1', '2', '2', '3', '1', '2']","[18.05350159999216, 18.237482399999863, 18.43745259998832, 20.293438299995614, 20.57347010000376, 20.781858300004387]",3,6,# # # # # #,None
68,0.0,68,68.0,68.0,68.0,4.0,4.0,,,,3,False,0.0,None,right,False,2,1,0,enc,0,0,1,[],[],3,6,4 1 3 2 2 1,6
69,2.2160028000071184,69,69.0,69.0,69.0,5.0,5.0,,,,3,True,0.5,acc,right,True,2,1,5,ret,1,5,1,"['3', '1', '3', '2', '2', '1']","[27.885445899999468, 28.82943539999542, 29.285438899998553, 29.613424000010127, 29.87735850000172, 30.101448700006586]",3,6,# # # # # #,None
70,0.0,70,70.0,70.0,70.0,6.0,6.0,,,,2,False,0.0,None,right,False,2,1,0,enc,0,0,0,[],[],3,6,3 4 4 3 4 1,4
71,5.343900399981067,71,71.0,71.0,71.0,7.0,7.0,,,,2,True,0.5,acc,right,True,2,1,2,ret,1,2,0,"['3', '4', '4', '1', '2', '3']","[39.157439300004626, 40.23753509999369, 43.32539710000856, 43.62943050000467, 44.01344959999551, 44.50133969998569]",3,6,# # # # # #,None
72,0.0,72,72.0,72.0,72.0,8.0,8.0,,,,3,False,0.0,None,right,False,2,1,0,enc,0,0,1,[],[],3,6,1 2 2 4 4 3,6
73,1.2719729000236841,73,73.0,73.0,73.0,9.0,9.0,,,,3,True,0.5,acc,right,False,2,1,6,ret,1,10,1,"['1', '2', '2', '4', '4', '3']","[50.72537979998742, 50.90940340000088, 51.093389399989974, 51.629505599994445, 51.8134427999903, 51.997352700011106]",3,6,# # # # # #,None
74,0.0,74,74.0,74.0,74.0,10.0,10.0,,,,2,False,0.0,None,right,False,2,1,0,enc,0,0,0,[],[],3,6,4 4 3 2 3 3,4
75,3.863914300018223,75,75.0,75.0,75.0,11.0,11.0,,,,2,True,0.5,acc,right,True,2,1,5,ret,1,5,0,"['3', '3', '2', '3', '4', '3']","[61.50152019999223, 61.83728539998992, 63.261466399999335, 63.56544400000712, 65.08541989998776, 65.36543450001045]",3,6,# # # # # #,None
76,0.0,76,76.0,76.0,76.0,12.0,12.0,,,,3,False,0.0,None,right,False,2,1,0,enc,0,0,0,[],[],3,6,2 4 3 2 2 4,6
77,3.616023999988101,77,77.0,77.0,77.0,13.0,13.0,,,,3,True,0.5,acc,right,True,2,1,4,ret,1,4,0,"['4', '2', '2', '2', '4', '1']","[72.19750239999848, 72.43741939999745, 72.66190340000321, 75.30147189999116, 75.54153349998523, 75.81352639998659]",3,6,# # # # # #,None
78,0.0,78,78.0,78.0,78.0,14.0,14.0,,,,2,False,0.0,None,right,False,2,1,0,enc,0,0,0,[],[],3,6,2 3 4 4 1 2,4
79,2.9274868000065912,79,79.0,79.0,79.0,15.0,15.0,,,,2,True,0.5,acc,right,False,2,1,6,ret,1,10,0,"['2', '1', '4', '4', '3', '2']","[85.48576939999475, 85.72530990000814, 86.44543160000467, 86.66953809998813, 88.20553380000638, 88.41325620000134]",3,6,# # # # # #,None
80,0.0,80,80.0,80.0,80.0,16.0,16.0,,,,3,False,0.0,None,right,False,2,1,0,enc,0,0,1,[],[],3,6,2 1 1 2 4 1,6
81,1.8001065999851562,81,81.0,81.0,81.0,17.0,17.0,,,,3,True,0.5,acc,right,False,2,1,6,ret,1,10,1,"['2', '1', '1', '2', '4', '1']","[95.0373694000009, 95.4454345999984, 95.669439099991, 96.34952809999231, 96.60542040001019, 96.83747599998605]",3,6,# # # # # #,None
82,0.0,82,82.0,82.0,82.0,18.0,18.0,,,,3,False,0.0,None,right,False,2,1,0,enc,0,0,0,[],[],3,6,3 2 1 1 3 2,6
83,2.2799088000028847,83,83.0,83.0,83.0,19.0,19.0,,,,3,True,0.5,acc,right,True,2,1,4,ret,1,4,0,"['2', '3', '1', '3', '2', '1']","[103.76551460000337, 103.97347840000293, 104.22138820000691, 105.68538670000271, 105.85346459998982, 106.04542340000626]",3,6,# # # # # #,None
84,0.0,84,84.0,84.0,84.0,20.0,20.0,,,,2,False,0.0,None,right,False,2,1,0,enc,0,0,1,[],[],3,6,1 4 1 4 2 1,4
85,1.5440712000126953,85,85.0,85.0,85.0,21.0,21.0,,,,2,True,0.5,acc,right,False,2,1,6,ret,1,10,1,"['1', '4', '1', '4', '2', '1']","[115.09339039999759, 115.39737429999514, 115.7014363000053, 116.02146119999816, 116.34137660000124, 116.63746160001028]",3,6,# # # # # #,None
86,0.0,86,86.0,86.0,86.0,22.0,22.0,,,,2,False,0.0,None,right,False,2,1,0,enc,0,0,1,[],[],3,6,1 3 2 1 1 3,4
87,1.8320857000071555,87,87.0,87.0,87.0,23.0,23.0,,,,2,True,0.5,acc,right,False,2,1,6,ret,1,10,1,"['1', '3', '2', '1', '1', '3']","[124.92535360000329, 125.15723589999834, 125.75743520000833, 126.14151350001339, 126.53338680000161, 126.75743930001045]",3,6,# # # # # #,None
88,0.0,88,88.0,88.0,0.0,0.0,,,,,2,False,0.0,None,right,False,2,1,0,enc,0,0,1,[],[],4,6,4 4 1 3 2 2,4
89,1.2962439000257289,89,89.0,89.0,1.0,1.0,,,,,2,True,0.5,acc,right,False,2,1,6,ret,1,10,1,"['4', '4', '1', '3', '2', '2']","[6.850933299981989, 7.035042300005443, 7.506888300005812, 7.762995500001125, 7.9710430999984965, 8.147177200007718]",4,6,# # # # # #,None
90,0.0,90,90.0,90.0,2.0,2.0,,,,,2,False,0.0,None,right,False,2,1,0,enc,0,0,0,[],[],4,6,3 2 1 3 4 3,4
91,4.8798517999821325,91,91.0,91.0,3.0,3.0,,,,,2,True,0.5,acc,right,True,2,1,3,ret,1,3,0,"['3', '4', '2', '3', '2', '1']","[18.26713930000551, 18.594991099991603, 21.043025399994804, 21.394984499987913, 22.96296710000024, 23.146991099987645]",4,6,# # # # # #,None
92,0.0,92,92.0,92.0,4.0,4.0,,,,,3,False,0.0,None,right,False,2,1,0,enc,0,0,0,[],[],4,6,2 3 2 3 1 2,6
93,7.320065000007162,93,93.0,93.0,5.0,5.0,,,,,3,True,0.5,acc,right,True,2,1,3,ret,1,3,0,"['2', '1', '3', '3', '2', '4']","[30.122996899997815, 34.618920299981255, 34.83498650000547, 36.71497229998931, 36.978983799985144, 37.44306190000498]",4,6,# # # # # #,None
94,0.0,94,94.0,94.0,6.0,6.0,,,,,3,False,0.0,None,right,False,2,1,0,enc,0,0,1,[],[],4,6,4 4 4 2 2 1,6
95,0.9599427999928594,95,95.0,95.0,7.0,7.0,,,,,3,True,0.5,acc,right,False,2,1,6,ret,1,10,1,"['4', '4', '4', '2', '2', '1']","[43.97105359999114, 44.13103799999226, 44.35498119998374, 44.5709513000038, 44.74713299999712, 44.930996399984]",4,6,# # # # # #,None
96,0.0,96,96.0,96.0,8.0,8.0,,,,,2,False,0.0,None,right,False,2,1,0,enc,0,0,1,[],[],4,6,3 1 4 3 4 1,4
97,2.4797990999941253,97,97.0,97.0,9.0,9.0,,,,,2,True,0.5,acc,right,True,2,1,5,ret,1,5,1,"['3', '1', '4', '3', '2', '1']","[53.45917560000089, 53.731114099995466, 54.019043999986025, 54.7791154999868, 55.24298379998072, 55.938974699995015]",4,6,# # # # # #,None
98,0.0,98,98.0,98.0,10.0,10.0,,,,,3,False,0.0,None,right,False,2,1,0,enc,0,0,1,[],[],4,6,3 1 4 2 4 3,6
99,2.768057500012219,99,99.0,99.0,11.0,11.0,,,,,3,True,0.5,acc,right,True,2,1,5,ret,1,5,1,"['3', '1', '4', '2', '4', '1']","[62.41900739999255, 62.86701240000548, 63.14696419998654, 63.41901389998384, 64.00297470000805, 65.18706490000477]",4,6,# # # # # #,None
100,0.0,100,100.0,100.0,12.0,12.0,,,,,2,False,0.0,None,right,False,2,1,0,enc,0,0,0,[],[],4,6,2 1 4 1 4 4,4
101,7.208016499993391,101,101.0,101.0,13.0,13.0,,,,,2,True,0.5,acc,right,True,2,1,4,ret,1,4,0,"['4', '4', '1', '2', '1', '3']","[74.09099460000289, 74.46707959999912, 77.75501009999425, 78.03500509998412, 79.77888520000852, 81.29901109999628]",4,6,# # # # # #,None
102,0.0,102,102.0,102.0,14.0,14.0,,,,,3,False,0.0,None,right,False,2,1,0,enc,0,0,0,[],[],4,6,4 4 4 2 2 3,6
103,0.9359799000085331,103,103.0,103.0,15.0,15.0,,,,,3,True,0.5,acc,right,False,2,1,6,ret,1,10,0,"['3', '2', '2', '4', '4', '4']","[88.22700349998195, 88.41098809998948, 88.60297559999162, 88.81098139999085, 88.98709599999711, 89.16298339999048]",4,6,# # # # # #,None
104,0.0,104,104.0,104.0,16.0,16.0,,,,,2,False,0.0,None,right,False,2,1,0,enc,0,0,1,[],[],4,6,4 2 3 2 4 3,4
105,2.424084099999164,105,105.0,105.0,17.0,17.0,,,,,2,True,0.5,acc,right,True,2,1,5,ret,1,5,1,"['4', '2', '3', '2', '4', '1']","[98.94698899998912, 99.60298830000102, 100.14710159998504, 100.5229779999936, 101.1229412999819, 101.37107309998828]",4,6,# # # # # #,None
106,0.0,106,106.0,106.0,18.0,18.0,,,,,2,False,0.0,None,right,False,2,1,0,enc,0,0,0,[],[],4,6,4 4 2 3 3 4,4
107,3.479975399997784,107,107.0,107.0,19.0,19.0,,,,,2,True,0.5,acc,right,True,2,1,5,ret,1,5,0,"['4', '2', '3', '2', '4', '4']","[110.96303449998959, 111.45963249998749, 112.51502869999968, 112.81893899998977, 114.07499969998025, 114.44300989998737]",4,6,# # # # # #,None
108,0.0,108,108.0,108.0,20.0,20.0,,,,,3,False,0.0,None,right,False,2,1,0,enc,0,0,1,[],[],4,6,3 3 3 1 1 2,6
109,1.2079683000047226,109,109.0,109.0,21.0,21.0,,,,,3,True,0.5,acc,right,False,2,1,6,ret,1,10,1,"['3', '3', '3', '1', '1', '2']","[120.93107160000363, 121.10698179999599, 121.27501260000281, 121.69898939999985, 121.9310797000071, 122.13903990000836]",4,6,# # # # # #,None
110,0.0,110,110.0,110.0,22.0,22.0,,,,,3,False,0.0,None,right,False,2,1,0,enc,0,0,0,[],[],4,6,1 4 3 2 2 1,6
111,3.023944800021127,111,111.0,111.0,23.0,23.0,,,,,3,True,0.5,acc,right,True,2,1,4,ret,1,4,0,"['1', '2', '2', '4', '2', '1']","[129.01100549998228, 129.21099729998969, 129.4510569999984, 131.27500829999917, 131.69895890000043, 132.0349503000034]",4,6,# # # # # #,None
112,0.0,112,112.0,0.0,0.0,,,,,,3,False,0.0,None,right,False,2,1,0,enc,0,0,1,[],[],5,6,4 3 1 1 1 1,6
113,1.3198895000095945,113,113.0,1.0,1.0,,,,,,3,True,0.5,acc,right,False,2,1,6,ret,1,10,1,"['4', '3', '1', '1', '1', '1']","[5.300982799992198, 5.692909600009443, 5.9888799999898765, 6.220899500011001, 6.4128142000117805, 6.620872300001793]",5,6,# # # # # #,None
114,0.0,114,114.0,2.0,2.0,,,,,,3,False,0.0,None,right,False,2,1,0,enc,0,0,1,[],[],5,6,2 4 2 3 2 4,6
115,1.423951999982819,115,115.0,3.0,3.0,,,,,,3,True,0.5,acc,right,False,2,1,6,ret,1,10,1,"['2', '4', '2', '3', '2', '4']","[13.716977300005965, 13.91686229998595, 14.172885000007227, 14.708865900000092, 14.916871900000842, 15.140929299988784]",5,6,# # # # # #,None
116,0.0,116,116.0,4.0,4.0,,,,,,2,False,0.0,None,right,False,2,1,0,enc,0,0,1,[],[],5,6,4 3 3 2 2 2,4
117,1.4240581000049133,117,117.0,5.0,5.0,,,,,,2,True,0.5,acc,right,False,2,1,6,ret,1,10,1,"['4', '3', '3', '2', '2', '2']","[23.25293749998673, 23.532872799987672, 23.804968899989035, 24.15694089999306, 24.46107709998614, 24.676995599991642]",5,6,# # # # # #,None
118,0.0,118,118.0,6.0,6.0,,,,,,2,False,0.0,None,right,False,2,1,0,enc,0,0,1,[],[],5,6,2 3 1 3 2 3,4
119,1.2320158999937119,119,119.0,7.0,7.0,,,,,,2,True,0.5,acc,right,False,2,1,6,ret,1,10,1,"['2', '3', '1', '3', '2', '3']","[33.18085090001114, 33.38887039999827, 33.66884699999355, 33.90892899999744, 34.204851699993014, 34.41286680000485]",5,6,# # # # # #,None
120,0.0,120,120.0,8.0,8.0,,,,,,2,False,0.0,None,right,False,2,1,0,enc,0,0,0,[],[],5,6,3 2 3 1 3 4,4
121,5.4320715999929226,121,121.0,9.0,9.0,,,,,,2,True,0.5,acc,right,True,2,1,3,ret,1,3,0,"['4', '3', '3', '3', '3', '2']","[44.07680790001177, 44.67686119998689, 45.900833499996224, 46.76488830000744, 49.22894589998759, 49.508879500004696]",5,6,# # # # # #,None
122,0.0,122,122.0,10.0,10.0,,,,,,3,False,0.0,None,right,False,2,1,0,enc,0,0,0,[],[],5,6,1 3 1 4 1 1,6
123,4.4318030000140425,123,123.0,11.0,11.0,,,,,,3,True,0.5,acc,right,True,2,1,3,ret,1,3,0,"['1', '1', '4', '3', '1', '3']","[56.32489759998862, 56.556851400004234, 56.85285570000997, 60.34087109999382, 60.54887040000176, 60.75670060000266]",5,6,# # # # # #,None
124,0.0,124,124.0,12.0,12.0,,,,,,3,False,0.0,None,right,False,2,1,0,enc,0,0,0,[],[],5,6,3 3 4 4 1 1,6
125,3.648043499997584,125,125.0,13.0,13.0,,,,,,3,True,0.5,acc,right,True,2,1,5,ret,1,5,0,"['1', '1', '4', '4', '3', '1']","[67.70086660000379, 68.02885699999752, 68.60477489998448, 70.82095709998976, 71.08483529998921, 71.34891010000138]",5,6,# # # # # #,None
126,0.0,126,126.0,14.0,14.0,,,,,,2,False,0.0,None,right,False,2,1,0,enc,0,0,0,[],[],5,6,1 4 1 2 4 4,4
127,2.735926800000016,127,127.0,15.0,15.0,,,,,,2,True,0.5,acc,right,False,2,1,6,ret,1,10,0,"['4', '4', '2', '1', '4', '1']","[80.15698890000931, 80.45294300001115, 81.42090040000039, 81.77290959999664, 82.62106159998802, 82.89291570000933]",5,6,# # # # # #,None
128,0.0,128,128.0,16.0,16.0,,,,,,2,False,0.0,None,right,False,2,1,0,enc,0,0,1,[],[],5,6,1 2 2 1 4 2,4
129,2.5760613999736957,129,129.0,17.0,17.0,,,,,,2,True,0.5,acc,right,False,2,1,6,ret,1,10,1,"['1', '2', '2', '1', '4', '2']","[91.79681930001243, 92.35697799999616, 93.06095039998763, 93.45293669999228, 94.14085689999047, 94.37288069998613]",5,6,# # # # # #,None
130,0.0,130,130.0,18.0,18.0,,,,,,3,False,0.0,None,right,False,2,1,0,enc,0,0,1,[],[],5,6,2 2 1 3 1 3,6
131,1.4001414000231307,131,131.0,19.0,19.0,,,,,,3,True,0.5,acc,right,False,2,1,6,ret,1,10,1,"['2', '2', '1', '3', '1', '3']","[100.93273209998733, 101.11680230000638, 101.36483129998669, 101.90891599998577, 102.14088039999478, 102.33287350001046]",5,6,# # # # # #,None
132,0.0,132,132.0,20.0,20.0,,,,,,2,False,0.0,None,right,False,2,1,0,enc,0,0,0,[],[],5,6,3 4 2 3 1 4,4
133,2.464425800018944,133,133.0,21.0,21.0,,,,,,2,True,0.5,acc,right,True,2,1,5,ret,1,5,0,"['4', '1', '3', '2', '4', '1']","[110.62879719998455, 110.95684910001, 111.74086329998681, 112.05270999998902, 112.83686760001001, 113.09322300000349]",5,6,# # # # # #,None
134,0.0,134,134.0,22.0,22.0,,,,,,3,False,0.0,None,right,False,2,1,0,enc,0,0,0,[],[],5,6,2 3 3 3 4 2,6
135,5.927831500011963,135,135.0,23.0,23.0,,,,,,3,True,0.5,acc,right,True,2,1,4,ret,1,4,0,"['2', '4', '3', '2', '3', '3']","[119.8049619999947, 120.0769425999897, 120.58891099999892, 124.11687349999556, 124.3808374000073, 125.73279350000666]",5,6,# # # # # #,None
136,0.0,136,0.0,0.0,,,,,,,2,False,0.0,None,right,False,2,1,0,enc,0,0,1,[],[],6,6,2 3 1 1 2 3,4
137,1.2560856000054628,137,1.0,1.0,,,,,,,2,True,0.5,acc,right,False,2,1,6,ret,1,10,1,"['2', '3', '1', '1', '2', '3']","[6.535185399989132, 6.727218499989249, 6.919222299999092, 7.495240999996895, 7.67924889997812, 7.791270999994595]",6,6,# # # # # #,None
138,0.0,138,2.0,2.0,,,,,,,3,False,0.0,None,right,False,2,1,0,enc,0,0,1,[],[],6,6,2 3 3 4 2 2,6
139,1.3038710999826435,139,3.0,3.0,,,,,,,3,True,0.5,acc,right,False,2,1,6,ret,1,10,1,"['2', '3', '3', '4', '2', '2']","[14.479268600000069, 14.647168999974383, 14.847263299976476, 15.33506959999795, 15.599219999974594, 15.783139699982712]",6,6,# # # # # #,None
140,0.0,140,4.0,4.0,,,,,,,2,False,0.0,None,right,False,2,1,0,enc,0,0,0,[],[],6,6,3 1 2 4 4 4,4
141,3.5199843999871514,141,5.0,5.0,,,,,,,2,True,0.5,acc,right,True,2,1,3,ret,1,3,0,"['4', '4', '3', '2', '3', '1']","[24.751180499995826, 25.07923859998118, 25.975195999984862, 26.231176399975084, 28.127204599994002, 28.271164899982978]",6,6,# # # # # #,None
142,0.0,142,6.0,6.0,,,,,,,3,False,0.0,None,right,False,2,1,0,enc,0,0,1,[],[],6,6,3 3 1 3 2 2,6
143,1.528112500003772,143,7.0,7.0,,,,,,,3,True,0.5,acc,right,True,2,1,5,ret,1,5,1,"['3', '3', '1', '1', '2', '2']","[34.74320159998024, 34.927072099992074, 35.27933629998006, 35.86317899997812, 36.09521919998224, 36.27131409998401]",6,6,# # # # # #,None
144,0.0,144,8.0,8.0,,,,,,,2,False,0.0,None,right,False,2,1,0,enc,0,0,1,[],[],6,6,1 2 2 2 4 1,4
145,1.3520947999786586,145,9.0,9.0,,,,,,,2,True,0.5,acc,right,False,2,1,6,ret,1,10,1,"['1', '2', '2', '2', '4', '1']","[44.85517009999603, 45.15118249997613, 45.41527369999676, 45.65516729999217, 45.92715949998819, 46.20726489997469]",6,6,# # # # # #,None
146,0.0,146,10.0,10.0,,,,,,,3,False,0.0,None,right,False,2,1,0,enc,0,0,1,[],[],6,6,3 1 4 4 2 4,6
147,3.1360023000161164,147,11.0,11.0,,,,,,,3,True,0.5,acc,right,True,2,1,4,ret,1,4,1,"['3', '1', '4', '2', '3', '4']","[52.43118339998182, 52.82319239998469, 53.53518839998287, 54.591189500002656, 55.02311699997517, 55.567185699997935]",6,6,# # # # # #,None
148,0.0,148,12.0,12.0,,,,,,,3,False,0.0,None,right,False,2,1,0,enc,0,0,0,[],[],6,6,3 4 1 3 4 2,6
149,2.4159173000080045,149,13.0,13.0,,,,,,,3,True,0.5,acc,right,True,2,1,2,ret,1,2,0,"['2', '4', '1', '3', '2', '4']","[62.88726349998615, 63.16730249999091, 63.72728729998926, 64.29508789998363, 64.99924389997614, 65.30318079999415]",6,6,# # # # # #,None
150,0.0,150,14.0,14.0,,,,,,,3,False,0.0,None,right,False,2,1,0,enc,0,0,0,[],[],6,6,1 2 1 3 1 1,6
151,2.5919877999986056,151,15.0,15.0,,,,,,,3,True,0.5,acc,right,False,2,1,6,ret,1,10,0,"['1', '1', '3', '1', '2', '1']","[72.26320970000234, 72.51915939999162, 72.83922029999667, 74.44730020000134, 74.6474149999849, 74.85519750000094]",6,6,# # # # # #,None
152,0.0,152,16.0,16.0,,,,,,,2,False,0.0,None,right,False,2,1,0,enc,0,0,1,[],[],6,6,2 1 4 3 3 2,4
153,2.319920899986755,153,17.0,17.0,,,,,,,2,True,0.5,acc,right,False,2,1,6,ret,1,10,1,"['2', '1', '4', '3', '3', '2']","[83.70323429998825, 84.03117619999102, 84.74336559997755, 85.12726349997683, 85.73520159997861, 86.02315519997501]",6,6,# # # # # #,None
154,0.0,154,18.0,18.0,,,,,,,2,False,0.0,None,right,False,2,1,0,enc,0,0,0,[],[],6,6,1 4 4 1 2 3,4
155,4.6243315000028815,155,19.0,19.0,,,,,,,2,True,0.5,acc,right,True,2,1,3,ret,1,3,0,"['3', '2', '4', '4', '1', '4']","[94.86316529999021, 95.15117929998087, 96.46310679998714, 97.775276499975, 99.14316999999573, 99.4874967999931]",6,6,# # # # # #,None
156,0.0,156,20.0,20.0,,,,,,,2,False,0.0,None,right,False,2,1,0,enc,0,0,0,[],[],6,6,2 1 2 3 4 4,4
157,2.199954900017474,157,21.0,21.0,,,,,,,2,True,0.5,acc,right,True,2,1,4,ret,1,4,0,"['4', '4', '3', '2', '2', '1']","[108.66320809998433, 108.99913599999854, 109.96721669999533, 110.20701789998566, 110.69511770000099, 110.8631630000018]",6,6,# # # # # #,None
158,0.0,158,22.0,22.0,,,,,,,3,False,0.0,None,right,False,2,1,0,enc,0,0,0,[],[],6,6,3 1 3 4 2 3,6
159,2.872036099986872,159,23.0,23.0,,,,,,,3,True,0.5,acc,right,False,2,1,6,ret,1,10,0,"['3', '2', '4', '3', '1', '3']","[117.87120719999075, 118.20731359999627, 118.48727449998842, 120.13509139997768, 120.47124319997965, 120.74324329997762]",6,6,# # # # # #,None
160,0.0,0,0.0,,,,,,,,2,False,0.0,None,right,False,2,1,0,enc,0,0,1,[],[],7,6,2 4 4 2 1 3,4
161,1.9837507999909576,1,1.0,,,,,,,,2,True,0.5,acc,right,False,2,1,6,ret,1,10,1,"['2', '4', '4', '2', '1', '3']","[6.61599049999495, 6.9998984999838285, 7.271793299994897, 8.199863499990897, 8.46402620000299, 8.599741299985908]",7,6,# # # # # #,None
162,0.0,2,2.0,,,,,,,,3,False,0.0,None,right,False,2,1,0,enc,0,0,1,[],[],7,6,2 4 3 1 4 4,6
163,1.6958867000066675,3,3.0,,,,,,,,3,True,0.5,acc,right,False,2,1,6,ret,1,10,1,"['2', '4', '3', '1', '4', '4']","[14.823906699981308, 15.143752899981337, 15.343785600009141, 16.143777799996315, 16.36795690000872, 16.519793399987975]",7,6,# # # # # #,None
164,0.0,4,4.0,,,,,,,,3,False,0.0,None,right,False,2,1,0,enc,0,0,1,[],[],7,6,3 3 4 4 4 1,6
165,1.0400196999835316,5,5.0,,,,,,,,3,True,0.5,acc,right,False,2,1,6,ret,1,10,1,"['3', '3', '4', '4', '4', '1']","[22.687791000003926, 22.83978899999056, 23.03173859999515, 23.423825500009116, 23.58382790000178, 23.727810699987458]",7,6,# # # # # #,None
166,0.0,6,6.0,,,,,,,,2,False,0.0,None,right,False,2,1,0,enc,0,0,1,[],[],7,6,4 1 2 3 3 2,4
167,1.136194400023669,7,7.0,,,,,,,,2,True,0.5,acc,right,False,2,1,6,ret,1,10,1,"['4', '1', '2', '3', '3', '2']","[32.05582029998186, 32.31996029999573, 32.56783899999573, 32.79186299999128, 32.99166259999038, 33.19201470000553]",7,6,# # # # # #,None
168,0.0,8,8.0,,,,,,,,3,False,0.0,None,right,False,2,1,0,enc,0,0,0,[],[],7,6,3 4 2 1 2 2,6
169,3.6880163000023463,9,9.0,,,,,,,,3,True,0.5,acc,right,True,2,1,4,ret,1,4,0,"['2', '2', '1', '2', '3', '4']","[39.983781799994176, 40.151872099988395, 40.447898999991594, 41.73580199998105, 43.33581960000447, 43.67179809999652]",7,6,# # # # # #,None
170,0.0,10,10.0,,,,,,,,2,False,0.0,None,right,False,2,1,0,enc,0,0,0,[],[],7,6,4 4 3 4 3 3,4
171,3.2320038999896497,11,11.0,,,,,,,,2,True,0.5,acc,right,False,2,1,6,ret,1,10,0,"['3', '3', '4', '3', '4', '4']","[51.97581740000169, 52.38381070000469, 53.70383670000592, 53.94378579998738, 55.0318649999972, 55.20782129999134]",7,6,# # # # # #,None
172,0.0,12,12.0,,,,,,,,2,False,0.0,None,right,False,2,1,0,enc,0,0,0,[],[],7,6,4 1 4 1 4 2,4
173,4.504062099993462,13,13.0,,,,,,,,2,True,0.5,acc,right,True,2,1,4,ret,1,4,0,"['2', '3', '4', '4', '1', '4']","[64.03181809998932, 64.31970429999637, 65.91984590000357, 67.21582009998383, 68.2318030000024, 68.53588019998278]",7,6,# # # # # #,None
174,0.0,14,14.0,,,,,,,,3,False,0.0,None,right,False,2,1,0,enc,0,0,1,[],[],7,6,2 1 4 3 1 2,6
175,2.687915699993028,15,15.0,,,,,,,,3,True,0.5,acc,right,False,2,1,6,ret,1,10,1,"['2', '1', '4', '3', '1', '2']","[74.95187140000053, 75.863812399999, 76.24778330000117, 77.0798131999909, 77.43976519998978, 77.63978709999355]",7,6,# # # # # #,None
176,0.0,16,16.0,,,,,,,,2,False,0.0,None,right,False,2,1,0,enc,0,0,0,[],[],7,6,4 4 4 2 4 2,4
177,1.4960841000138316,17,17.0,,,,,,,,2,True,0.5,acc,right,False,2,1,6,ret,1,10,0,"['2', '4', '2', '4', '4', '4']","[86.24773989999085, 86.47183140000561, 86.69582130000344, 86.97578129998874, 87.51980469998671, 87.74382400000468]",7,6,# # # # # #,None
178,0.0,18,18.0,,,,,,,,3,False,0.0,None,right,False,2,1,0,enc,0,0,0,[],[],7,6,3 1 4 4 2 4,6
179,3.3919164999970235,19,19.0,,,,,,,,3,True,0.5,acc,right,True,2,1,4,ret,1,4,0,"['4', '2', '4', '4', '3', '1']","[96.63994100000127, 96.85579959998722, 97.06379240000388, 99.22379869999713, 99.79179339998518, 100.0318574999983]",7,6,# # # # # #,None
180,0.0,20,20.0,,,,,,,,3,False,0.0,None,right,False,2,1,0,enc,0,0,0,[],[],7,6,1 4 2 2 3 4,6
181,2.6483102999918633,21,21.0,,,,,,,,3,True,0.5,acc,right,True,2,1,3,ret,1,3,0,"['4', '3', '2', '4', '1', '3']","[107.1038203999924, 107.40830999999889, 107.68778939999174, 108.89580539998133, 109.63181659998372, 109.75213069998426]",7,6,# # # # # #,None
182,0.0,22,22.0,,,,,,,,2,False,0.0,None,right,False,2,1,0,enc,0,0,1,[],[],7,6,1 1 2 1 1 3,4
183,1.5437618000141808,23,23.0,,,,,,,,2,True,0.5,acc,right,False,2,1,6,ret,1,10,1,"['1', '1', '2', '1', '1', '3']","[118.88802899999428, 119.15982060000533, 119.70386059998418, 119.91985159998876, 120.29561559998547, 120.43179080000846]",7,6,# # # # # #,None
0,0.0,0,,,,,,,,,2,False,0.0,None,right,False,2,1,0,enc,0,0,1,[],[],8,6,4 2 3 2 2 2,4
1,1.2639716000121552,1,,,,,,,,,2,True,0.5,acc,right,False,2,1,6,ret,1,10,1,"['4', '2', '3', '2', '2', '2']","[7.577507799986051, 7.905431599996518, 8.249601899995469, 8.473626699997112, 8.673551899992162, 8.841479399998207]",8,6,# # # # # #,None
2,0.0,2,,,,,,,,,2,False,0.0,None,right,False,2,1,0,enc,0,0,1,[],[],8,6,1 1 1 3 1 4,4
3,1.1600519000203349,3,,,,,,,,,2,True,0.5,acc,right,False,2,1,6,ret,1,10,1,"['1', '1', '1', '3', '1', '4']","[17.11348519998137, 17.313540999981342, 17.529546299978392, 17.74555269998382, 18.001524499995867, 18.273537100001704]",8,6,# # # # # #,None
4,0.0,4,,,,,,,,,2,False,0.0,None,right,False,2,1,0,enc,0,0,0,[],[],8,6,2 1 2 1 3 4,4
5,1.7919093999953475,5,,,,,,,,,2,True,0.5,acc,right,False,2,1,6,ret,1,10,0,"['4', '3', '1', '2', '1', '2']","[26.95360839998466, 27.24147899998934, 28.121615399984876, 28.369523199973628, 28.553505499992752, 28.745517799980007]",8,6,# # # # # #,None
6,0.0,6,,,,,,,,,2,False,0.0,None,right,False,2,1,0,enc,0,0,1,[],[],8,6,1 3 1 4 2 3,4
7,1.160010699997656,7,,,,,,,,,2,True,0.5,acc,right,False,2,1,6,ret,1,10,1,"['1', '3', '1', '4', '2', '3']","[37.345502099982696, 37.5457233999914, 37.8256063000008, 38.04950860000099, 38.30559309999808, 38.50551279998035]",8,6,# # # # # #,None
8,0.0,8,,,,,,,,,3,False,0.0,None,right,False,2,1,0,enc,0,0,1,[],[],8,6,1 4 3 3 2 2,6
9,1.1839753999956883,9,,,,,,,,,3,True,0.5,acc,right,False,2,1,6,ret,1,10,1,"['1', '4', '3', '3', '2', '2']","[44.7615303999919, 45.00158559999545, 45.26552349998383, 45.58562329999404, 45.79362859998946, 45.945505799987586]",8,6,# # # # # #,None
10,0.0,10,,,,,,,,,2,False,0.0,None,right,False,2,1,0,enc,0,0,0,[],[],8,6,4 3 3 4 4 1,4
11,1.8319434000004549,11,,,,,,,,,2,True,0.5,acc,right,True,2,1,3,ret,1,3,0,"['1', '4', '3', '2', '3', '2']","[54.60953219997464, 54.88951019998058, 55.55364469997585, 55.84158149998984, 56.16151369997533, 56.44147559997509]",8,6,# # # # # #,None
12,0.0,12,,,,,,,,,2,False,0.0,None,right,False,2,1,0,enc,0,0,0,[],[],8,6,3 1 3 2 4 2,4
13,4.103885199991055,13,,,,,,,,,2,True,0.5,acc,right,True,2,1,3,ret,1,3,0,"['2', '4', '3', '3', '2', '1']","[65.00959929998498, 65.21753169997828, 66.60945059999358, 67.32209869998042, 68.84152919999906, 69.11348449997604]",8,6,# # # # # #,None
14,0.0,14,,,,,,,,,3,False,0.0,None,right,False,2,1,0,enc,0,0,1,[],[],8,6,1 3 2 3 3 3,6
15,0.7840018999995664,15,,,,,,,,,3,True,0.5,acc,right,False,2,1,6,ret,1,10,1,"['1', '3', '2', '3', '3', '3']","[75.4015398999909, 75.53749199997401, 75.6975276999874, 75.8815035999869, 76.03355019999435, 76.18554179999046]",8,6,# # # # # #,None
16,0.0,16,,,,,,,,,3,False,0.0,None,right,False,2,1,0,enc,0,0,1,[],[],8,6,4 2 4 4 2 4,6
17,0.9359956000116654,17,,,,,,,,,3,True,0.5,acc,right,False,2,1,6,ret,1,10,1,"['4', '2', '4', '4', '2', '4']","[82.51351219997741, 82.68151249998482, 82.86548459998448, 83.12946499997634, 83.30558249997557, 83.44950779998908]",8,6,# # # # # #,None
18,0.0,18,,,,,,,,,3,False,0.0,None,right,False,2,1,0,enc,0,0,0,[],[],8,6,1 2 2 3 1 1,6
19,4.632025800005067,19,,,,,,,,,3,True,0.5,acc,right,True,2,1,4,ret,1,4,0,"['1', '1', '2', '2', '1', '1']","[89.60144569998374, 89.80150249999133, 90.08939959999407, 92.50551749998704, 94.01750399998855, 94.23347149998881]",8,6,# # # # # #,None
20,0.0,20,,,,,,,,,3,False,0.0,None,right,False,2,1,0,enc,0,0,0,[],[],8,6,2 3 1 1 3 4,6
21,3.7039834999886807,21,,,,,,,,,3,True,0.5,acc,right,True,2,1,4,ret,1,4,0,"['4', '3', '1', '4', '3', '1']","[101.2576018999971, 101.58556339997449, 101.92150359999505, 103.90551699997741, 104.36165439998149, 104.96158539998578]",8,6,# # # # # #,None
22,0.0,22,,,,,,,,,3,False,0.0,None,right,False,2,1,0,enc,0,0,0,[],[],8,6,4 3 2 2 1 3,6
23,2.6719790999777615,23,,,,,,,,,3,True,0.5,acc,right,True,2,1,3,ret,1,3,0,"['3', '1', '2', '4', '2', '3']","[111.63353120000102, 111.8575113999832, 112.62559189999592, 113.70550369998091, 114.11348839997663, 114.30551029997878]",8,6,# # # # # #,None
