,Tn,MT,chunk,display_trial_feedback,feedback_dur,feedback_type,hand,is_error,item_dur,iti_dur,number_correct,phase,phase_type,points,recall_dir,response,response_time,run_number,seq_length,seq_str,trial_dur,P1,P2,P3,P4,P5,P6,IPI_0,IPI_1,IPI_2,IPI_3,IPI_4,IPI_5
16,0,0.0,3,False,0.0,None,right,False,2,1,0,enc,0,0,1,[],[],1,6,4 2 2 1 1 2,6,0.0,0.0,0.0,0.0,0.0,0.0,0,0.0,0.0,0.0,0.0,0.0
17,1,2.9999695,3,True,0.5,acc,right,True,2,1,4,ret,1,4,1,"['4', '1', '1', '1', '1', '2']","[5.394970599998487, 5.91497059998801, 6.146978999982821, 7.9308928999817, 8.131005499977618, 8.394940099999076]",1,6,# # # # # #,None,5.394970599998487,5.91497059998801,6.146978999982821,7.9308928999817,8.131005499977618,8.394940099999076,NaN,0.5199999999895226,0.23200839999481104,1.783913899998879,0.20011259999591857,0.2639346000214573
18,2,0.0,3,False,0.0,None,right,False,2,1,0,enc,0,0,1,[],[],1,6,3 3 2 2 3 3,6,0.0,0.0,0.0,0.0,0.0,0.0,0,0.0,0.0,0.0,0.0,0.0
19,3,4.5200019,3,True,0.5,acc,right,False,2,1,6,ret,1,10,1,"['3', '3', '2', '2', '3', '3']","[16.338873999979114, 16.746980999974767, 17.155014999996638, 19.818845599977067, 20.594852699985495, 20.858875899983104]",1,6,# # # # # #,None,16.338873999979114,16.746980999974767,17.155014999996638,19.818845599977067,20.594852699985495,20.858875899983104,1.4439338999800384,0.4081069999956526,0.4080340000218712,2.663830599980429,0.7760071000084281,0.2640231999976095
20,4,0.0,2,False,0.0,None,right,False,2,1,0,enc,0,0,0,[],[],1,6,1 4 4 2 2 1,4,0.0,0.0,0.0,0.0,0.0,0.0,0,0.0,0.0,0.0,0.0,0.0
21,5,5.3679437,2,True,0.5,acc,right,False,2,1,6,ret,1,10,0,"['1', '2', '2', '4', '4', '1']","[33.922949300002074, 34.38691549998475, 36.98704779997934, 37.79496389999986, 39.11494379999931, 39.290892999997595]",1,6,# # # # # #,None,33.922949300002074,34.38691549998475,36.98704779997934,37.79496389999986,39.11494379999931,39.290892999997595,6.5640734000189696,0.4639661999826785,2.600132299994584,0.8079161000205204,1.3199798999994528,0.17594919999828562
22,6,0.0,3,False,0.0,None,right,False,2,1,0,enc,0,0,0,[],[],1,6,2 3 3 2 4 1,6,0.0,0.0,0.0,0.0,0.0,0.0,0,0.0,0.0,0.0,0.0,0.0
23,7,7.7840949,3,True,0.5,acc,right,False,2,1,6,ret,1,10,0,"['1', '4', '2', '3', '3', '2']","[47.322830899996916, 49.21091389999492, 50.010945999994874, 52.49088319999282, 52.91493529998115, 55.106925799977034]",1,6,# # # # # #,None,47.322830899996916,49.21091389999492,50.010945999994874,52.49088319999282,52.91493529998115,55.106925799977034,1.5319378999993205,1.888082999998005,0.8000320999999531,2.4799371999979485,0.42405209998833016,2.1919904999958817
24,8,0.0,2,False,0.0,None,right,False,2,1,0,enc,0,0,0,[],[],1,6,4 3 2 1 3 4,4,0.0,0.0,0.0,0.0,0.0,0.0,0,0.0,0.0,0.0,0.0,0.0
25,9,8.8487553,2,True,0.5,acc,right,False,2,1,6,ret,1,10,0,"['4', '3', '1', '2', '3', '4']","[65.61099089999334, 66.70692529997905, 71.09084979997715, 71.53890639997553, 74.25091489998158, 74.45974619998015]",1,6,# # # # # #,None,65.61099089999334,66.70692529997905,71.09084979997715,71.53890639997553,74.25091489998158,74.45974619998015,4.004065100016305,1.0959343999857083,4.383924499998102,0.448056599998381,2.71200850000605,0.20883129999856465
26,10,0.0,2,False,0.0,None,right,False,2,1,0,enc,0,0,1,[],[],1,6,4 3 3 1 1 2,4,0.0,0.0,0.0,0.0,0.0,0.0,0,0.0,0.0,0.0,0.0,0.0
27,11,3.6800021,2,True,0.5,acc,right,True,2,1,4,ret,1,4,1,"['4', '3', '2', '1', '1', '3']","[84.63491399999475, 84.8508773999929, 86.64292109999224, 86.74694889999228, 88.2188715999946, 88.31491609997465]",1,6,# # # # # #,None,84.63491399999475,84.8508773999929,86.64292109999224,86.74694889999228,88.2188715999946,88.31491609997465,3.6751678000146057,0.21596339999814518,1.7920436999993399,0.10402780000003986,1.4719227000023238,0.09604449998005293
28,12,0.0,3,False,0.0,None,right,False,2,1,0,enc,0,0,0,[],[],1,6,2 3 4 2 2 1,6,0.0,0.0,0.0,0.0,0.0,0.0,0,0.0,0.0,0.0,0.0,0.0
29,13,5.6721442,3,True,0.5,acc,right,False,2,1,6,ret,1,10,0,"['1', '2', '2', '4', '3', '2']","[96.3228694999998, 97.33092579999357, 97.5307746999897, 99.92288399999961, 101.84293539999635, 101.99501369998325]",1,6,# # # # # #,None,96.3228694999998,97.33092579999357,97.5307746999897,99.92288399999961,101.84293539999635,101.99501369998325,1.5079534000251442,1.0080562999937683,0.19984889999614097,2.3921093000099063,1.920051399996737,0.15207829998689704
30,14,0.0,2,False,0.0,None,right,False,2,1,0,enc,0,0,1,[],[],1,6,4 2 3 4 2 1,4,0.0,0.0,0.0,0.0,0.0,0.0,0,0.0,0.0,0.0,0.0,0.0
31,15,5.3836667,2,True,0.5,acc,right,False,2,1,6,ret,1,10,1,"['4', '2', '3', '4', '2', '1']","[113.05127060000086, 114.23493069998221, 115.95495759998448, 116.1233557999949, 118.36279889999423, 118.4349372999859]",1,6,# # # # # #,None,113.05127060000086,114.23493069998221,115.95495759998448,116.1233557999949,118.36279889999423,118.4349372999859,4.556256900017615,1.1836600999813527,1.7200269000022672,0.16839820001041517,2.2394430999993347,0.07213839999167249
32,16,0.0,2,False,0.0,None,right,False,2,1,0,enc,0,0,1,[],[],1,6,1 4 1 3 2 4,4,0.0,0.0,0.0,0.0,0.0,0.0,0,0.0,0.0,0.0,0.0,0.0
33,17,3.8804413,2,True,0.5,acc,right,True,2,1,4,ret,1,4,1,"['1', '3', '1', '3', '2', '5']","[127.14697010000236, 127.47511589998612, 128.79497029999038, 129.09895109999343, 130.83488079998642, 131.02741139999125]",1,6,# # # # # #,None,127.14697010000236,127.47511589998612,128.79497029999038,129.09895109999343,130.83488079998642,131.02741139999125,2.212032800016459,0.3281457999837585,1.3198544000042602,0.30398080000304617,1.7359296999929938,0.19253060000482947
34,18,0.0,3,False,0.0,None,right,False,2,1,0,enc,0,0,0,[],[],1,6,2 3 3 3 3 4,6,0.0,0.0,0.0,0.0,0.0,0.0,0,0.0,0.0,0.0,0.0,0.0
35,19,3.9202265,3,True,0.5,acc,right,False,2,1,6,ret,1,10,0,"['4', '3', '3', '3', '3', '2']","[138.2107537999982, 138.9469571999798, 139.1789780999825, 141.7389075999963, 141.93896469997708, 142.13098029998946]",1,6,# # # # # #,None,138.2107537999982,138.9469571999798,139.1789780999825,141.7389075999963,141.93896469997708,142.13098029998946,0.6833424000069499,0.7362033999816049,0.23202090000268072,2.5599295000138227,0.20005709998076782,0.1920156000123825
36,20,0.0,3,False,0.0,None,right,False,2,1,0,enc,0,0,1,[],[],1,6,1 1 3 2 2 4,6,0.0,0.0,0.0,0.0,0.0,0.0,0,0.0,0.0,0.0,0.0,0.0
37,21,1.8318773,3,True,0.5,acc,right,False,2,1,6,ret,1,10,1,"['1', '1', '3', '2', '2', '4']","[148.73891189999995, 148.95499879997806, 149.2109480999934, 150.20294219997595, 150.41089579998516, 150.57078919999185]",1,6,# # # # # #,None,148.73891189999995,148.95499879997806,149.2109480999934,150.20294219997595,150.41089579998516,150.57078919999185,0.10793160001048818,0.2160868999781087,0.2559493000153452,0.9919940999825485,0.20795360000920482,0.15989340000669472
38,22,0.0,2,False,0.0,None,right,False,2,1,0,enc,0,0,0,[],[],1,6,4 1 1 1 4 4,4,0.0,0.0,0.0,0.0,0.0,0.0,0,0.0,0.0,0.0,0.0,0.0
39,23,5.4478287,2,True,0.5,acc,right,False,2,1,6,ret,1,10,0,"['4', '4', '1', '1', '1', '4']","[159.29903480000212, 159.50694399999338, 161.84291409997968, 162.25889899997856, 164.45071839998127, 164.74686349998228]",1,6,# # # # # #,None,159.29903480000212,159.50694399999338,161.84291409997968,162.25889899997856,164.45071839998127,164.74686349998228,2.2282456000102684,0.20790919999126345,2.335970099986298,0.41598489999887533,2.1918194000027142,0.2961451000010129
40,0,0.0,3,False,0.0,None,right,False,2,1,0,enc,0,0,1,[],[],2,6,3 2 2 3 2 3,6,0.0,0.0,0.0,0.0,0.0,0.0,0,0.0,0.0,0.0,0.0,0.0
41,1,2.2320784,3,True,0.5,acc,right,False,2,1,6,ret,1,10,1,"['3', '2', '2', '3', '2', '3']","[5.67022079997696, 5.95031809998909, 6.1663815999927465, 7.566275599994697, 7.766360099980375, 7.9022991999809165]",2,6,# # # # # #,None,5.67022079997696,5.95031809998909,6.1663815999927465,7.566275599994697,7.766360099980375,7.9022991999809165,NaN,0.2800973000121303,0.21606350000365637,1.3998940000019502,0.20008449998567812,0.13593910000054166
42,2,0.0,2,False,0.0,None,right,False,2,1,0,enc,0,0,1,[],[],2,6,2 4 4 4 4 1,4,0.0,0.0,0.0,0.0,0.0,0.0,0,0.0,0.0,0.0,0.0,0.0
43,3,3.0801703,2,True,0.5,acc,right,False,2,1,6,ret,1,10,1,"['2', '4', '4', '4', '4', '1']","[17.446312899992336, 17.95822099997895, 19.174320499994792, 19.4222454999981, 20.350295499985805, 20.52648319999571]",2,6,# # # # # #,None,17.446312899992336,17.95822099997895,19.174320499994792,19.4222454999981,20.350295499985805,20.52648319999571,3.044013700011419,0.5119080999866128,1.2160995000158437,0.2479250000033062,0.9280499999877065,0.1761877000099048
44,4,0.0,3,False,0.0,None,right,False,2,1,0,enc,0,0,1,[],[],2,6,1 4 1 4 4 3,6,0.0,0.0,0.0,0.0,0.0,0.0,0,0.0,0.0,0.0,0.0,0.0
45,5,2.5439027,3,True,0.5,acc,right,False,2,1,6,ret,1,10,1,"['1', '4', '1', '4', '4', '3']","[27.694196500000544, 28.038254399987636, 28.310289899993222, 28.99033309999504, 29.24660079999012, 30.23809919998166]",2,6,# # # # # #,None,27.694196500000544,28.038254399987636,28.310289899993222,28.99033309999504,29.24660079999012,30.23809919998166,0.6677133000048343,0.34405789998709224,0.2720355000055861,0.6800432000018191,0.25626769999507815,0.9914983999915421
46,6,0.0,3,False,0.0,None,right,False,2,1,0,enc,0,0,0,[],[],2,6,1 3 1 3 1 3,6,0.0,0.0,0.0,0.0,0.0,0.0,0,0.0,0.0,0.0,0.0,0.0
47,7,3.3841611,3,True,0.5,acc,right,False,2,1,6,ret,1,10,0,"['3', '1', '3', '1', '3', '1']","[38.926292299991474, 39.51027429997339, 39.862389199988684, 41.52643269998953, 42.04624419999891, 42.31045339998673]",2,6,# # # # # #,None,38.926292299991474,39.51027429997339,39.862389199988684,41.52643269998953,42.04624419999891,42.31045339998673,2.188193100009812,0.5839819999819156,0.35211490001529455,1.6640435000008438,0.5198115000093821,0.26420919998781756
48,8,0.0,2,False,0.0,None,right,False,2,1,0,enc,0,0,0,[],[],2,6,2 1 4 4 4 2,4,0.0,0.0,0.0,0.0,0.0,0.0,0,0.0,0.0,0.0,0.0,0.0
49,9,5.8720281,2,True,0.5,acc,right,False,2,1,6,ret,1,10,0,"['2', '4', '4', '4', '1', '2']","[52.43833169998834, 53.31824090000009, 55.254262699978426, 55.542394699994475, 58.238718999986304, 58.310359800001606]",2,6,# # # # # #,None,52.43833169998834,53.31824090000009,55.254262699978426,55.542394699994475,58.238718999986304,58.310359800001606,3.627878300001612,0.8799092000117525,1.9360217999783345,0.28813200001604855,2.6963242999918293,0.07164080001530237
50,10,0.0,3,False,0.0,None,right,False,2,1,0,enc,0,0,0,[],[],2,6,3 3 4 1 2 3,6,0.0,0.0,0.0,0.0,0.0,0.0,0,0.0,0.0,0.0,0.0,0.0
51,11,3.4321993,3,True,0.5,acc,right,False,2,1,6,ret,1,10,0,"['3', '2', '1', '4', '3', '3']","[65.55815839997376, 65.70292589999735, 65.87050459999591, 68.11826179997297, 68.80644299997948, 68.99035769997863]",2,6,# # # # # #,None,65.55815839997376,65.70292589999735,65.87050459999591,68.11826179997297,68.80644299997948,68.99035769997863,0.7477985999721568,0.1447675000235904,0.16757869999855757,2.247757199977059,0.6881812000065111,0.1839146999991499
52,12,0.0,2,False,0.0,None,right,False,2,1,0,enc,0,0,0,[],[],2,6,4 2 2 2 3 1,4,0.0,0.0,0.0,0.0,0.0,0.0,0,0.0,0.0,0.0,0.0,0.0
53,13,4.5360072,2,True,0.5,acc,right,True,2,1,5,ret,1,5,0,"['1', '3', '2', '2', '4', '4']","[77.8702784999914, 79.03822019998915, 81.08624779997626, 81.3102456999768, 82.20624759999919, 82.4062856999808]",2,6,# # # # # #,None,77.8702784999914,79.03822019998915,81.08624779997626,81.3102456999768,82.20624759999919,82.4062856999808,2.379920800012769,1.1679416999977548,2.0480275999871083,0.22399790000054054,0.8960019000223838,0.2000380999816116
54,14,0.0,3,False,0.0,None,right,False,2,1,0,enc,0,0,1,[],[],2,6,3 2 2 1 1 4,6,0.0,0.0,0.0,0.0,0.0,0.0,0,0.0,0.0,0.0,0.0,0.0
55,15,1.3680632,3,True,0.5,acc,right,False,2,1,6,ret,1,10,1,"['3', '2', '2', '1', '1', '4']","[89.4861839999794, 89.7183468999865, 89.91021969998837, 90.23027169998386, 90.43827469999087, 90.85424719998264]",2,6,# # # # # #,None,89.4861839999794,89.7183468999865,89.91021969998837,90.23027169998386,90.43827469999087,90.85424719998264,0.5798982999986038,0.23216290000709705,0.19187280000187457,0.32005199999548495,0.208003000007011,0.4159724999917671
56,16,0.0,2,False,0.0,None,right,False,2,1,0,enc,0,0,0,[],[],2,6,4 3 2 1 2 2,4,0.0,0.0,0.0,0.0,0.0,0.0,0,0.0,0.0,0.0,0.0,0.0
57,17,5.8638923,2,True,0.5,acc,right,False,2,1,6,ret,1,10,0,"['2', '2', '1', '2', '3', '4']","[100.02234319999116, 100.2307962999912, 102.35827679999056, 103.03824589998112, 105.79831549999653, 105.88623549998738]",2,6,# # # # # #,None,100.02234319999116,100.2307962999912,102.35827679999056,103.03824589998112,105.79831549999653,105.88623549998738,2.668096000008518,0.20845310000004247,2.127480499999365,0.6799690999905579,2.760069600015413,0.0879199999908451
58,18,0.0,2,False,0.0,None,right,False,2,1,0,enc,0,0,1,[],[],2,6,3 1 4 4 2 3,4,0.0,0.0,0.0,0.0,0.0,0.0,0,0.0,0.0,0.0,0.0,0.0
59,19,2.6000939,2,True,0.5,acc,right,False,2,1,6,ret,1,10,1,"['3', '1', '4', '4', '2', '3']","[114.84610969998175, 114.99870450000162, 116.21431789998314, 116.42233879998093, 117.39831399999093, 117.44620359997498]",2,6,# # # # # #,None,114.84610969998175,114.99870450000162,116.21431789998314,116.42233879998093,117.39831399999093,117.44620359997498,2.459874199994374,0.15259480001986958,1.215613399981521,0.20802089999779128,0.9759752000099979,0.04788959998404607
60,20,0.0,3,False,0.0,None,right,False,2,1,0,enc,0,0,0,[],[],2,6,1 1 4 4 3 2,6,0.0,0.0,0.0,0.0,0.0,0.0,0,0.0,0.0,0.0,0.0,0.0
61,21,3.4559031,3,True,0.5,acc,right,True,2,1,5,ret,1,5,0,"['2', '3', '4', '4', '4', '1']","[125.49436139999307, 126.11021859999164, 126.51835329999449, 128.51028209997457, 128.75025599999935, 128.9502644999884]",2,6,# # # # # #,None,125.49436139999307,126.11021859999164,126.51835329999449,128.51028209997457,128.75025599999935,128.9502644999884,1.548157800018089,0.6158571999985725,0.40813470000284724,1.9919287999800872,0.23997390002477914,0.20000849998905323
62,22,0.0,2,False,0.0,None,right,False,2,1,0,enc,0,0,1,[],[],2,6,4 2 1 2 4 1,4,0.0,0.0,0.0,0.0,0.0,0.0,0,0.0,0.0,0.0,0.0,0.0
63,23,2.6400007,2,True,0.5,acc,right,False,2,1,6,ret,1,10,1,"['4', '2', '1', '2', '4', '1']","[137.7982591999753, 138.52635379999992, 139.35822579998057, 139.44614149999688, 140.31824909997522, 140.4382598999946]",2,6,# # # # # #,None,137.7982591999753,138.52635379999992,139.35822579998057,139.44614149999688,140.31824909997522,140.4382598999946,2.3479946999868844,0.7280946000246331,0.831871999980649,0.08791570001631044,0.8721075999783352,0.12001080001937225
64,0,0.0,2,False,0.0,None,right,False,2,1,0,enc,0,0,1,[],[],3,6,1 3 3 1 2 3,4,0.0,0.0,0.0,0.0,0.0,0.0,0,0.0,0.0,0.0,0.0,0.0
65,1,1.8959274,2,True,0.5,acc,right,False,2,1,6,ret,1,10,1,"['1', '3', '3', '1', '2', '3']","[6.901481899985811, 7.173465200001374, 7.965396599989617, 8.085459599999012, 8.725440100010019, 8.797409299993888]",3,6,# # # # # #,None,6.901481899985811,7.173465200001374,7.965396599989617,8.085459599999012,8.725440100010019,8.797409299993888,NaN,0.27198330001556315,0.7919313999882434,0.12006300000939518,0.6399805000110064,0.07196919998386875
66,2,0.0,3,False,0.0,None,right,False,2,1,0,enc,0,0,0,[],[],3,6,2 3 1 2 2 1,6,0.0,0.0,0.0,0.0,0.0,0.0,0,0.0,0.0,0.0,0.0,0.0
67,3,6.7763328,3,True,0.5,acc,right,True,2,1,2,ret,1,2,0,"['1', '3', '2', '3', '2', '1']","[16.56538129999535, 18.181434800004354, 19.237442699988605, 22.701307100011036, 23.181458799983375, 23.341714100009995]",3,6,# # # # # #,None,16.56538129999535,18.181434800004354,19.237442699988605,22.701307100011036,23.181458799983375,23.341714100009995,1.267972000001464,1.6160535000090022,1.0560078999842517,3.4638644000224303,0.480151699972339,0.1602553000266198
68,4,0.0,3,False,0.0,None,right,False,2,1,0,enc,0,0,1,[],[],3,6,4 1 3 2 2 1,6,0.0,0.0,0.0,0.0,0.0,0.0,0,0.0,0.0,0.0,0.0,0.0
69,5,1.3120108,3,True,0.5,acc,right,False,2,1,6,ret,1,10,1,"['4', '1', '3', '2', '2', '1']","[30.4295376999944, 30.845549299992854, 31.061475900001824, 31.493518200004473, 31.66147120000096, 31.74154849999468]",3,6,# # # # # #,None,30.4295376999944,30.845549299992854,31.061475900001824,31.493518200004473,31.66147120000096,31.74154849999468,0.5878235999844037,0.4160115999984555,0.21592660000897013,0.4320423000026494,0.16795299999648705,0.08007729999371804
70,6,0.0,2,False,0.0,None,right,False,2,1,0,enc,0,0,0,[],[],3,6,3 4 4 3 4 1,4,0.0,0.0,0.0,0.0,0.0,0.0,0,0.0,0.0,0.0,0.0,0.0
71,7,4.9519134,2,True,0.5,acc,right,True,2,1,4,ret,1,4,0,"['1', '4', '4', '3', '4', '3']","[41.0535058999958, 41.949376200005645, 43.74951960000908, 43.86145570001099, 45.93344560000696, 46.00541929999599]",3,6,# # # # # #,None,41.0535058999958,41.949376200005645,43.74951960000908,43.86145570001099,45.93344560000696,46.00541929999599,2.81195740000112,0.8958703000098467,1.800143400003435,0.11193610000191256,2.0719898999959696,0.07197369998903014
72,8,0.0,3,False,0.0,None,right,False,2,1,0,enc,0,0,1,[],[],3,6,1 2 2 4 4 3,6,0.0,0.0,0.0,0.0,0.0,0.0,0,0.0,0.0,0.0,0.0,0.0
73,9,2.7600837,3,True,0.5,acc,right,True,2,1,5,ret,1,5,1,"['1', '1', '2', '4', '4', '3']","[52.83732459999737, 53.0214760999952, 53.173533499997575, 55.269453199987765, 55.44542380000348, 55.597408300003735]",3,6,# # # # # #,None,52.83732459999737,53.0214760999952,53.173533499997575,55.269453199987765,55.44542380000348,55.597408300003735,0.33190530000138097,0.18415149999782443,0.1520574000023771,2.0959196999901906,0.17597060001571663,0.15198450000025332
74,10,0.0,2,False,0.0,None,right,False,2,1,0,enc,0,0,0,[],[],3,6,4 4 3 2 3 3,4,0.0,0.0,0.0,0.0,0.0,0.0,0,0.0,0.0,0.0,0.0,0.0
75,11,5.2879086,2,True,0.5,acc,right,True,2,1,4,ret,1,4,0,"['3', '3', '2', '2', '4', '3']","[65.46949170000153, 65.66141309999512, 68.10941360000288, 68.30143779999344, 70.67751899998984, 70.75740030000452]",3,6,# # # # # #,None,65.46949170000153,65.66141309999512,68.10941360000288,68.30143779999344,70.67751899998984,70.75740030000452,3.3720833999977913,0.19192139999358915,2.4480005000077654,0.19202419999055564,2.376081199996406,0.07988130001467653
76,12,0.0,3,False,0.0,None,right,False,2,1,0,enc,0,0,0,[],[],3,6,2 4 3 2 2 4,6,0.0,0.0,0.0,0.0,0.0,0.0,0,0.0,0.0,0.0,0.0,0.0
77,13,5.2639864,3,True,0.5,acc,right,False,2,1,6,ret,1,10,0,"['4', '2', '2', '3', '4', '2']","[78.49350889999187, 78.80570850000367, 78.99746700000833, 81.38950489999843, 82.67745399998967, 83.7574953000003]",3,6,# # # # # #,None,78.49350889999187,78.80570850000367,78.99746700000833,81.38950489999843,82.67745399998967,83.7574953000003,1.2361085999873467,0.3121996000118088,0.1917585000046529,2.3920378999901004,1.2879490999912377,1.0800413000106346
78,14,0.0,2,False,0.0,None,right,False,2,1,0,enc,0,0,0,[],[],3,6,2 3 4 4 1 2,4,0.0,0.0,0.0,0.0,0.0,0.0,0,0.0,0.0,0.0,0.0,0.0
79,15,3.4079142,2,True,0.5,acc,right,False,2,1,6,ret,1,10,0,"['2', '1', '4', '4', '3', '2']","[92.65354040000238, 92.75752929999726, 94.19745919998968, 94.38933070001076, 96.01340170000913, 96.06145459998515]",3,6,# # # # # #,None,92.65354040000238,92.75752929999726,94.19745919998968,94.38933070001076,96.01340170000913,96.06145459998515,2.396045100002084,0.10398889999487437,1.4399298999924213,0.19187150002107956,1.6240709999983665,0.04805289997602813
80,16,0.0,3,False,0.0,None,right,False,2,1,0,enc,0,0,1,[],[],3,6,2 1 1 2 4 1,6,0.0,0.0,0.0,0.0,0.0,0.0,0,0.0,0.0,0.0,0.0,0.0
81,17,1.8965314,3,True,0.5,acc,right,False,2,1,6,ret,1,10,1,"['2', '1', '1', '2', '4', '1']","[102.96555100000114, 103.18945919998805, 103.36544389999472, 104.08551750000333, 104.72550719999708, 104.86208240000997]",3,6,# # # # # #,None,102.96555100000114,103.18945919998805,103.36544389999472,104.08551750000333,104.72550719999708,104.86208240000997,0.40409640001598746,0.22390819998690858,0.17598470000666566,0.7200736000086181,0.6399896999937482,0.13657520001288503
82,18,0.0,3,False,0.0,None,right,False,2,1,0,enc,0,0,0,[],[],3,6,3 2 1 1 3 2,6,0.0,0.0,0.0,0.0,0.0,0.0,0,0.0,0.0,0.0,0.0,0.0
83,19,6.663855,3,True,0.5,acc,right,True,2,1,4,ret,1,4,0,"['2', '3', '1', '1', '3', '2']","[112.4695522999973, 113.34174840000924, 113.52537879999727, 116.8774553000112, 119.0133746000065, 119.1334072999889]",3,6,# # # # # #,None,112.4695522999973,113.34174840000924,113.52537879999727,116.8774553000112,119.0133746000065,119.1334072999889,1.1074698999873362,0.8721961000119336,0.18363039998803288,3.3520765000139363,2.135919299995294,0.12003269998240285
84,20,0.0,2,False,0.0,None,right,False,2,1,0,enc,0,0,1,[],[],3,6,1 4 1 4 2 1,4,0.0,0.0,0.0,0.0,0.0,0.0,0,0.0,0.0,0.0,0.0,0.0
85,21,1.3840661,2,True,0.5,acc,right,False,2,1,6,ret,1,10,1,"['1', '4', '1', '4', '2', '1']","[127.71751190000214, 127.99745500000427, 128.2855683999951, 128.46144159999676, 129.00536449998617, 129.1015780000016]",3,6,# # # # # #,None,127.71751190000214,127.99745500000427,128.2855683999951,128.46144159999676,129.00536449998617,129.1015780000016,2.0841046000132337,0.27994310000212863,0.2881133999908343,0.17587320000166073,0.5439228999894112,0.0962135000154376
86,22,0.0,2,False,0.0,None,right,False,2,1,0,enc,0,0,1,[],[],3,6,1 3 2 1 1 3,4,0.0,0.0,0.0,0.0,0.0,0.0,0,0.0,0.0,0.0,0.0,0.0
87,23,1.2239611,2,True,0.5,acc,right,False,2,1,6,ret,1,10,1,"['1', '3', '2', '1', '1', '3']","[137.69346320000477, 137.94148209999548, 138.36542379998718, 138.48549379999167, 138.8214372000075, 138.91742429998703]",3,6,# # # # # #,None,137.69346320000477,137.94148209999548,138.36542379998718,138.48549379999167,138.8214372000075,138.91742429998703,2.091885200003162,0.24801889999071136,0.42394169999170117,0.12007000000448897,0.3359434000158217,0.09598709997953847
88,0,0.0,2,False,0.0,None,right,False,2,1,0,enc,0,0,1,[],[],4,6,4 4 1 3 2 2,4,0.0,0.0,0.0,0.0,0.0,0.0,0,0.0,0.0,0.0,0.0,0.0
89,1,2.0639794,2,True,0.5,acc,right,False,2,1,6,ret,1,10,1,"['4', '4', '1', '3', '2', '2']","[7.164542599988636, 7.396504400006961, 7.756533400010085, 7.908604399999604, 9.02852009999333, 9.228521999990335]",4,6,# # # # # #,None,7.164542599988636,7.396504400006961,7.756533400010085,7.908604399999604,9.02852009999333,9.228521999990335,NaN,0.23196180001832545,0.36002900000312366,0.1520709999895189,1.1199156999937259,0.20000189999700524
90,2,0.0,2,False,0.0,None,right,False,2,1,0,enc,0,0,0,[],[],4,6,3 2 1 3 4 3,4,0.0,0.0,0.0,0.0,0.0,0.0,0,0.0,0.0,0.0,0.0,0.0
91,3,5.8960581,2,True,0.5,acc,right,False,2,1,6,ret,1,10,0,"['3', '4', '3', '1', '2', '3']","[19.140486999996938, 19.34864579999703, 23.364583499991568, 23.469044600002235, 24.98854590000701, 25.0365451000107]",4,6,# # # # # #,None,19.140486999996938,19.34864579999703,23.364583499991568,23.469044600002235,24.98854590000701,25.0365451000107,3.411965000006603,0.20815880000009201,4.015937699994538,0.104461100010667,1.5195013000047766,0.04799920000368729
92,4,0.0,3,False,0.0,None,right,False,2,1,0,enc,0,0,0,[],[],4,6,2 3 2 3 1 2,6,0.0,0.0,0.0,0.0,0.0,0.0,0,0.0,0.0,0.0,0.0,0.0
93,5,3.8155353,3,True,0.5,acc,right,False,2,1,6,ret,1,10,0,"['2', '1', '3', '2', '3', '2']","[33.37307880001026, 33.49236510001356, 33.68449869999313, 36.80456580000464, 37.01238850000664, 37.18861410001409]",4,6,# # # # # #,None,33.37307880001026,33.49236510001356,33.68449869999313,36.80456580000464,37.01238850000664,37.18861410001409,1.8365336999995634,0.11928630000329576,0.19213359997957014,3.1200671000115108,0.20782270000199787,0.1762256000074558
94,6,0.0,3,False,0.0,None,right,False,2,1,0,enc,0,0,1,[],[],4,6,4 4 4 2 2 1,6,0.0,0.0,0.0,0.0,0.0,0.0,0,0.0,0.0,0.0,0.0,0.0
95,7,1.5519433,3,True,0.5,acc,right,False,2,1,6,ret,1,10,1,"['4', '4', '4', '2', '2', '1']","[43.652554500004044, 43.86063800001284, 44.06054810000933, 44.92456129999482, 45.10051729998668, 45.2044978000049]",4,6,# # # # # #,None,43.652554500004044,43.86063800001284,44.06054810000933,44.92456129999482,45.10051729998668,45.2044978000049,-0.0360596000100486,0.20808350000879727,0.19991009999648668,0.864013199985493,0.17595599999185652,0.10398050001822412
96,8,0.0,2,False,0.0,None,right,False,2,1,0,enc,0,0,1,[],[],4,6,3 1 4 3 4 1,4,0.0,0.0,0.0,0.0,0.0,0.0,0,0.0,0.0,0.0,0.0,0.0
97,9,5.0319367,2,True,0.5,acc,right,False,2,1,6,ret,1,10,1,"['3', '1', '4', '3', '4', '1']","[54.132579299999634, 54.260516899987124, 56.64455779999844, 56.68455740000354, 59.08462650000001, 59.16451599998982]",4,6,# # # # # #,None,54.132579299999634,54.260516899987124,56.64455779999844,56.68455740000354,59.08462650000001,59.16451599998982,2.4280814999947324,0.1279375999874901,2.384040900011314,0.039999600005103275,2.4000690999964718,0.07988949998980388
98,10,0.0,3,False,0.0,None,right,False,2,1,0,enc,0,0,1,[],[],4,6,3 1 4 2 4 3,6,0.0,0.0,0.0,0.0,0.0,0.0,0,0.0,0.0,0.0,0.0,0.0
99,11,1.7598954,3,True,0.5,acc,right,False,2,1,6,ret,1,10,1,"['3', '1', '4', '2', '4', '3']","[66.16453750000801, 66.27659950000816, 66.49254800000926, 67.18066770001315, 67.38845269999001, 67.92443290000665]",4,6,# # # # # #,None,66.16453750000801,66.27659950000816,66.49254800000926,67.18066770001315,67.38845269999001,67.92443290000665,0.5000215000181925,0.11206200000015087,0.21594850000110455,0.688119700003881,0.20778499997686595,0.5359802000166383
100,12,0.0,2,False,0.0,None,right,False,2,1,0,enc,0,0,0,[],[],4,6,2 1 4 1 4 4,4,0.0,0.0,0.0,0.0,0.0,0.0,0,0.0,0.0,0.0,0.0,0.0
101,13,7.4561835,2,True,0.5,acc,right,True,2,1,5,ret,1,5,0,"['4', '4', '1', '4', '1', '3']","[76.36457090001204, 76.56459659998654, 80.07657219999237, 80.41251819999889, 83.54851829999825, 83.8207543999888]",4,6,# # # # # #,None,76.36457090001204,76.56459659998654,80.07657219999237,80.41251819999889,83.54851829999825,83.8207543999888,1.9401380000053905,0.20002569997450337,3.511975600005826,0.33594600000651553,3.1360000999993645,0.27223609999055043
102,14,0.0,3,False,0.0,None,right,False,2,1,0,enc,0,0,0,[],[],4,6,4 4 4 2 2 3,6,0.0,0.0,0.0,0.0,0.0,0.0,0,0.0,0.0,0.0,0.0,0.0
103,15,1.5361381,3,True,0.5,acc,right,False,2,1,6,ret,1,10,0,"['3', '2', '2', '4', '4', '4']","[91.6044172999973, 91.9325347999984, 92.11651059999713, 92.78850059999968, 92.98054670001147, 93.1405553999939]",4,6,# # # # # #,None,91.6044172999973,91.9325347999984,92.11651059999713,92.78850059999968,92.98054670001147,93.1405553999939,1.283662900008494,0.32811750000109896,0.18397579999873415,0.6719900000025518,0.1920461000117939,0.16000869998242706
104,16,0.0,2,False,0.0,None,right,False,2,1,0,enc,0,0,1,[],[],4,6,4 2 3 2 4 3,4,0.0,0.0,0.0,0.0,0.0,0.0,0,0.0,0.0,0.0,0.0,0.0
105,17,3.7365749,2,True,0.5,acc,right,True,2,1,5,ret,1,5,1,"['4', '2', '3', '2', '3', '3']","[103.4765519000066, 103.7245200999896, 105.2125134000089, 105.30046229998698, 106.42054869999993, 107.21312679999392]",4,6,# # # # # #,None,103.4765519000066,103.7245200999896,105.2125134000089,105.30046229998698,106.42054869999993,107.21312679999392,3.8359965000126977,0.24796819998300634,1.4879933000192977,0.08794889997807331,1.1200864000129513,0.7925780999939889
106,18,0.0,2,False,0.0,None,right,False,2,1,0,enc,0,0,0,[],[],4,6,4 4 2 3 3 4,4,0.0,0.0,0.0,0.0,0.0,0.0,0,0.0,0.0,0.0,0.0,0.0
107,19,5.0722774,2,True,0.5,acc,right,True,2,1,3,ret,1,3,0,"['4', '3', '4', '4', '4', '3']","[116.94838640000671, 117.20451320000575, 118.94055259999004, 119.1725940000033, 121.78052279999247, 122.02066380000906]",4,6,# # # # # #,None,116.94838640000671,117.20451320000575,118.94055259999004,119.1725940000033,121.78052279999247,122.02066380000906,3.235259600012796,0.25612679999903776,1.7360393999842927,0.23204140001325868,2.6079287999891676,0.24014100001659244
108,20,0.0,3,False,0.0,None,right,False,2,1,0,enc,0,0,1,[],[],4,6,3 3 3 1 1 2,6,0.0,0.0,0.0,0.0,0.0,0.0,0,0.0,0.0,0.0,0.0,0.0
109,21,0.99208,3,True,0.5,acc,right,False,2,1,6,ret,1,10,1,"['3', '3', '3', '1', '1', '2']","[128.86054739999236, 129.0764965999988, 129.26848739999696, 129.57289889999083, 129.75650990000577, 129.8526273999887]",4,6,# # # # # #,None,128.86054739999236,129.0764965999988,129.26848739999696,129.57289889999083,129.75650990000577,129.8526273999887,0.3398835999832954,0.2159492000064347,0.19199079999816604,0.3044114999938756,0.1836110000149347,0.09611749998293817
110,22,0.0,3,False,0.0,None,right,False,2,1,0,enc,0,0,0,[],[],4,6,1 4 3 2 2 1,6,0.0,0.0,0.0,0.0,0.0,0.0,0,0.0,0.0,0.0,0.0,0.0
111,23,3.663966,3,True,0.5,acc,right,False,2,1,6,ret,1,10,0,"['1', '2', '2', '3', '4', '1']","[137.52458940001088, 137.76446690000012, 137.9325373999891, 140.6205406000081, 140.8284990999964, 141.18855540000368]",4,6,# # # # # #,None,137.52458940001088,137.76446690000012,137.9325373999891,140.6205406000081,140.8284990999964,141.18855540000368,1.1719620000221767,0.2398774999892339,0.16807049998897128,2.6880032000190113,0.20795849998830818,0.3600563000072725
112,0,0.0,3,False,0.0,None,right,False,2,1,0,enc,0,0,1,[],[],5,6,4 3 1 1 1 1,6,0.0,0.0,0.0,0.0,0.0,0.0,0,0.0,0.0,0.0,0.0,0.0
113,1,1.0638174,3,True,0.5,acc,right,False,2,1,6,ret,1,10,1,"['4', '3', '1', '1', '1', '1']","[5.251908400008688, 5.523920300009195, 5.707804500008933, 6.019744899997022, 6.171676800004207, 6.3157257999992]",5,6,# # # # # #,None,5.251908400008688,5.523920300009195,5.707804500008933,6.019744899997022,6.171676800004207,6.3157257999992,NaN,0.272011900000507,0.18388419999973848,0.31194039998808876,0.1519319000071846,0.1440489999949932
114,2,0.0,3,False,0.0,None,right,False,2,1,0,enc,0,0,1,[],[],5,6,2 4 2 3 2 4,6,0.0,0.0,0.0,0.0,0.0,0.0,0,0.0,0.0,0.0,0.0,0.0
115,3,2.4800773,3,True,0.5,acc,right,True,2,1,4,ret,1,4,1,"['2', '4', '2', '3', '4', '2']","[13.651749000011478, 13.92392280002241, 14.363888599997154, 15.627860800013877, 15.84381449999637, 16.131826299999375]",5,6,# # # # # #,None,13.651749000011478,13.92392280002241,14.363888599997154,15.627860800013877,15.84381449999637,16.131826299999375,0.8360232000122778,0.2721738000109326,0.4399657999747433,1.263972200016724,0.21595369998249225,0.2880118000030052
116,4,0.0,2,False,0.0,None,right,False,2,1,0,enc,0,0,1,[],[],5,6,4 3 3 2 2 2,4,0.0,0.0,0.0,0.0,0.0,0.0,0,0.0,0.0,0.0,0.0,0.0
117,5,2.5760085,2,True,0.5,acc,right,False,2,1,6,ret,1,10,1,"['4', '3', '3', '2', '2', '2']","[25.371845000016037, 25.635876400017878, 26.995891700003995, 27.227797100000316, 27.763843499997165, 27.947853500023484]",5,6,# # # # # #,None,25.371845000016037,25.635876400017878,26.995891700003995,27.227797100000316,27.763843499997165,27.947853500023484,2.7400187000166625,0.26403140000184067,1.3600152999861166,0.23190539999632165,0.5360463999968488,0.18401000002631918
118,6,0.0,2,False,0.0,None,right,False,2,1,0,enc,0,0,1,[],[],5,6,2 3 1 3 2 3,4,0.0,0.0,0.0,0.0,0.0,0.0,0,0.0,0.0,0.0,0.0,0.0
119,7,0.8640742,2,True,0.5,acc,right,False,2,1,6,ret,1,10,1,"['2', '3', '1', '3', '2', '3']","[36.531883100018604, 36.57187620000332, 36.867813300021226, 36.95572660001926, 37.331905600003665, 37.39595730000292]",5,6,# # # # # #,None,36.531883100018604,36.57187620000332,36.867813300021226,36.95572660001926,37.331905600003665,37.39595730000292,2.0840295999951195,0.0399930999847129,0.29593710001790896,0.08791329999803565,0.37617899998440407,0.0640516999992542
120,8,0.0,2,False,0.0,None,right,False,2,1,0,enc,0,0,0,[],[],5,6,3 2 3 1 3 4,4,0.0,0.0,0.0,0.0,0.0,0.0,0,0.0,0.0,0.0,0.0,0.0
121,9,4.0400433,2,True,0.5,acc,right,False,2,1,6,ret,1,10,0,"['4', '3', '1', '3', '2', '3']","[47.18769420002354, 47.41183810000075, 49.403854000003776, 49.55565870000282, 51.15586810000241, 51.227737500012154]",5,6,# # # # # #,None,47.18769420002354,47.41183810000075,49.403854000003776,49.55565870000282,51.15586810000241,51.227737500012154,3.2917369000206236,0.22414389997720718,1.9920159000030253,0.15180469999904744,1.600209399999585,0.07186940000974573
122,10,0.0,3,False,0.0,None,right,False,2,1,0,enc,0,0,0,[],[],5,6,1 3 1 4 1 1,6,0.0,0.0,0.0,0.0,0.0,0.0,0,0.0,0.0,0.0,0.0,0.0
123,11,4.4723301,3,True,0.5,acc,right,False,2,1,6,ret,1,10,0,"['1', '1', '4', '1', '3', '1']","[58.291928200022085, 58.93182019999949, 60.65173820001655, 62.55584740001359, 62.65182640001876, 62.76425830001244]",5,6,# # # # # #,None,58.291928200022085,58.93182019999949,60.65173820001655,62.55584740001359,62.65182640001876,62.76425830001244,0.5641907000099309,0.639891999977408,1.71991800001706,1.9041091999970376,0.09597900000517257,0.11243189999368042
124,12,0.0,3,False,0.0,None,right,False,2,1,0,enc,0,0,0,[],[],5,6,3 3 4 4 1 1,6,0.0,0.0,0.0,0.0,0.0,0.0,0,0.0,0.0,0.0,0.0,0.0
125,13,4.1362204,3,True,0.5,acc,right,True,2,1,4,ret,1,4,0,"['1', '1', '4', '1', '1', '3']","[69.57969790001516, 70.12393530001282, 70.82781340001384, 72.64382379999734, 72.83578370002215, 73.71591830000398]",5,6,# # # # # #,None,69.57969790001516,70.12393530001282,70.82781340001384,72.64382379999734,72.83578370002215,73.71591830000398,0.3154396000027191,0.5442373999976553,0.7038781000010204,1.8160103999834973,0.19195990002481267,0.8801345999818295
126,14,0.0,2,False,0.0,None,right,False,2,1,0,enc,0,0,0,[],[],5,6,1 4 1 2 4 4,4,0.0,0.0,0.0,0.0,0.0,0.0,0,0.0,0.0,0.0,0.0,0.0
127,15,3.1919754,2,True,0.5,acc,right,True,2,1,5,ret,1,5,0,"['4', '4', '2', '1', '3', '1']","[82.43584990000818, 82.61183790001087, 84.49968259999878, 84.57166940000025, 85.58031620000838, 85.6278253000055]",5,6,# # # # # #,None,82.43584990000818,82.61183790001087,84.49968259999878,84.57166940000025,85.58031620000838,85.6278253000055,2.2199316000042018,0.17598800000268966,1.8878446999879088,0.07198680000146851,1.0086468000081368,0.04750909999711439
128,16,0.0,2,False,0.0,None,right,False,2,1,0,enc,0,0,1,[],[],5,6,1 2 2 1 4 2,4,0.0,0.0,0.0,0.0,0.0,0.0,0,0.0,0.0,0.0,0.0,0.0
129,17,1.8799407,2,True,0.5,acc,right,False,2,1,6,ret,1,10,1,"['1', '2', '2', '1', '4', '2']","[94.7078747000196, 94.92367479999666, 95.26784929999849, 95.34780250000767, 96.45185370001127, 96.58781540000928]",5,6,# # # # # #,None,94.7078747000196,94.92367479999666,95.26784929999849,95.34780250000767,96.45185370001127,96.58781540000928,2.5800494000141043,0.2158000999770593,0.34417450000182725,0.07995320000918582,1.104051200003596,0.13596169999800622
130,18,0.0,3,False,0.0,None,right,False,2,1,0,enc,0,0,1,[],[],5,6,2 2 1 3 1 3,6,0.0,0.0,0.0,0.0,0.0,0.0,0,0.0,0.0,0.0,0.0,0.0
131,19,1.4959168,3,True,0.5,acc,right,False,2,1,6,ret,1,10,1,"['2', '2', '1', '3', '1', '3']","[103.58780900001875, 103.7799675000133, 103.91575909999665, 104.80385600001318, 104.96382090001134, 105.08372580001014]",5,6,# # # # # #,None,103.58780900001875,103.7799675000133,103.91575909999665,104.80385600001318,104.96382090001134,105.08372580001014,0.4999936000094749,0.19215849999454804,0.13579159998334944,0.8880969000165351,0.15996489999815822,0.11990489999880083
132,20,0.0,2,False,0.0,None,right,False,2,1,0,enc,0,0,0,[],[],5,6,3 4 2 3 1 4,4,0.0,0.0,0.0,0.0,0.0,0.0,0,0.0,0.0,0.0,0.0,0.0
133,21,7.455904,2,True,0.5,acc,right,True,2,1,4,ret,1,4,0,"['4', '1', '4', '2', '4', '2']","[115.46784950001165, 115.54766430001473, 120.3878274000017, 121.01983130001463, 122.85190510001848, 122.92375350001385]",5,6,# # # # # #,None,115.46784950001165,115.54766430001473,120.3878274000017,121.01983130001463,122.85190510001848,122.92375350001385,3.88412370000151,0.07981480000307783,4.840163099986967,0.6320039000129327,1.8320738000038546,0.07184839999536052
134,22,0.0,3,False,0.0,None,right,False,2,1,0,enc,0,0,0,[],[],5,6,2 3 3 3 4 2,6,0.0,0.0,0.0,0.0,0.0,0.0,0,0.0,0.0,0.0,0.0,0.0
135,23,4.8639648,3,True,0.5,acc,right,True,2,1,3,ret,1,3,0,"['2', '4', '3', '4', '4', '3']","[129.9798496000003, 130.61172040001838, 131.08383600000525, 134.15584990000934, 134.39582830001018, 134.8438143999956]",5,6,# # # # # #,None,129.9798496000003,130.61172040001838,131.08383600000525,134.15584990000934,134.39582830001018,134.8438143999956,0.5560960999864619,0.6318708000180777,0.47211559998686425,3.0720139000040945,0.2399784000008367,0.44798609998542815
136,0,0.0,2,False,0.0,None,right,False,2,1,0,enc,0,0,1,[],[],6,6,2 3 1 1 2 3,4,0.0,0.0,0.0,0.0,0.0,0.0,0,0.0,0.0,0.0,0.0,0.0
137,1,0.9040161,2,True,0.5,acc,right,False,2,1,6,ret,1,10,1,"['2', '3', '1', '1', '2', '3']","[7.251318499998888, 7.3152266000106465, 7.75523599999724, 7.915395599993644, 8.123374000017066, 8.155334600014612]",6,6,# # # # # #,None,7.251318499998888,7.3152266000106465,7.75523599999724,7.915395599993644,8.123374000017066,8.155334600014612,NaN,0.0639081000117585,0.44000939998659305,0.16015959999640472,0.20797840002342127,0.031960599997546524
138,2,0.0,3,False,0.0,None,right,False,2,1,0,enc,0,0,1,[],[],6,6,2 3 3 4 2 2,6,0.0,0.0,0.0,0.0,0.0,0.0,0,0.0,0.0,0.0,0.0,0.0
139,3,2.144412,3,True,0.5,acc,right,False,2,1,6,ret,1,10,1,"['2', '3', '3', '4', '2', '2']","[15.019174899993232, 15.067288899997948, 15.659262500004843, 16.75522940000519, 17.00376310001593, 17.163586900016526]",6,6,# # # # # #,None,15.019174899993232,15.067288899997948,15.659262500004843,16.75522940000519,17.00376310001593,17.163586900016526,0.36384029997861944,0.04811400000471622,0.5919736000068951,1.0959669000003487,0.24853370001073927,0.15982380000059493
140,4,0.0,2,False,0.0,None,right,False,2,1,0,enc,0,0,0,[],[],6,6,3 1 2 4 4 4,4,0.0,0.0,0.0,0.0,0.0,0.0,0,0.0,0.0,0.0,0.0,0.0
141,5,5.1675185,2,True,0.5,acc,right,False,2,1,6,ret,1,10,0,"['4', '4', '4', '2', '1', '3']","[25.83584109999356, 26.02728870001738, 29.075240400008624, 29.307234700012486, 30.915216399997007, 31.003359599999385]",6,6,# # # # # #,None,25.83584109999356,26.02728870001738,29.075240400008624,29.307234700012486,30.915216399997007,31.003359599999385,2.172254199977033,0.191447600023821,3.047951699991245,0.231994300003862,1.6079816999845207,0.08814320000237785
142,6,0.0,3,False,0.0,None,right,False,2,1,0,enc,0,0,1,[],[],6,6,3 3 1 3 2 2,6,0.0,0.0,0.0,0.0,0.0,0.0,0,0.0,0.0,0.0,0.0,0.0
143,7,1.9040505,3,True,0.5,acc,right,False,2,1,6,ret,1,10,1,"['3', '3', '1', '3', '2', '2']","[37.92335060000187, 38.107121900015045, 38.26739720001933, 39.483277599996654, 39.67528280001716, 39.827401100017596]",6,6,# # # # # #,None,37.92335060000187,38.107121900015045,38.26739720001933,39.483277599996654,39.67528280001716,39.827401100017596,0.4199910000024829,0.1837713000131771,0.1602753000042867,1.2158803999773227,0.19200520002050325,0.15211830000043847
144,8,0.0,2,False,0.0,None,right,False,2,1,0,enc,0,0,1,[],[],6,6,1 2 2 2 4 1,4,0.0,0.0,0.0,0.0,0.0,0.0,0,0.0,0.0,0.0,0.0,0.0
145,9,1.9040312,2,True,0.5,acc,right,False,2,1,6,ret,1,10,1,"['1', '2', '2', '2', '4', '1']","[48.547264599998016, 48.61125610000454, 49.58725609999965, 49.78724540001713, 50.3392686000152, 50.4512958000123]",6,6,# # # # # #,None,48.547264599998016,48.61125610000454,49.58725609999965,49.78724540001713,50.3392686000152,50.4512958000123,2.21986349998042,0.06399150000652298,0.9759999999951106,0.19998930001747794,0.5520231999980751,0.11202719999710098
146,10,0.0,3,False,0.0,None,right,False,2,1,0,enc,0,0,1,[],[],6,6,3 1 4 4 2 4,6,0.0,0.0,0.0,0.0,0.0,0.0,0,0.0,0.0,0.0,0.0,0.0
147,11,3.9923874,3,True,0.5,acc,right,True,2,1,5,ret,1,5,1,"['1', '1', '4', '4', '2', '4']","[58.52326610000455, 60.17124930000864, 60.66728230001172, 62.15527760001714, 62.37121830001706, 62.515653500013286]",6,6,# # # # # #,None,58.52326610000455,60.17124930000864,60.66728230001172,62.15527760001714,62.37121830001706,62.515653500013286,1.5719702999922447,1.6479832000040915,0.4960330000030808,1.487995300005423,0.21594069999991916,0.14443519999622367
148,12,0.0,3,False,0.0,None,right,False,2,1,0,enc,0,0,0,[],[],6,6,3 4 1 3 4 2,6,0.0,0.0,0.0,0.0,0.0,0.0,0,0.0,0.0,0.0,0.0,0.0
149,13,4.91198,3,True,0.5,acc,right,False,2,1,6,ret,1,10,0,"['2', '4', '3', '1', '4', '3']","[70.5712809000106, 71.45931850001216, 71.72330010001315, 73.71518470000592, 75.17136340000434, 75.48326090001501]",6,6,# # # # # #,None,70.5712809000106,71.45931850001216,71.72330010001315,73.71518470000592,75.17136340000434,75.48326090001501,1.55562739999732,0.8880376000015531,0.2639816000009887,1.9918845999927726,1.4561786999984179,0.31189750001067296
150,14,0.0,3,False,0.0,None,right,False,2,1,0,enc,0,0,0,[],[],6,6,1 2 1 3 1 1,6,0.0,0.0,0.0,0.0,0.0,0.0,0,0.0,0.0,0.0,0.0,0.0
151,15,3.3679187,3,True,0.5,acc,right,False,2,1,6,ret,1,10,0,"['1', '1', '3', '1', '2', '1']","[82.45130230000359, 82.6352603000123, 83.65924080001423, 85.5312613999995, 85.72319910000078, 85.81922100001248]",6,6,# # # # # #,None,82.45130230000359,82.6352603000123,83.65924080001423,85.5312613999995,85.72319910000078,85.81922100001248,0.46804139998857863,0.18395800000871532,1.023980500001926,1.8720205999852624,0.19193770000129007,0.0960219000116922
152,16,0.0,2,False,0.0,None,right,False,2,1,0,enc,0,0,1,[],[],6,6,2 1 4 3 3 2,4,0.0,0.0,0.0,0.0,0.0,0.0,0,0.0,0.0,0.0,0.0,0.0
153,17,1.8479199,2,True,0.5,acc,right,False,2,1,6,ret,1,10,1,"['2', '1', '4', '3', '3', '2']","[94.77126569999382, 94.87528350000503, 95.67528200001107, 95.85927400001674, 96.53133840000373, 96.61918559999322]",6,6,# # # # # #,None,94.77126569999382,94.87528350000503,95.67528200001107,95.85927400001674,96.53133840000373,96.61918559999322,2.452044699981343,0.10401780001120642,0.7999985000060406,0.18399200000567362,0.6720643999869935,0.08784719998948276
154,18,0.0,2,False,0.0,None,right,False,2,1,0,enc,0,0,0,[],[],6,6,1 4 4 1 2 3,4,0.0,0.0,0.0,0.0,0.0,0.0,0,0.0,0.0,0.0,0.0,0.0
155,19,3.3761141,2,True,0.5,acc,right,False,2,1,6,ret,1,10,0,"['3', '2', '1', '4', '4', '1']","[105.83527090001735, 105.92326130002039, 108.09930100000929, 108.851233399997, 109.05123010001262, 109.21138500000234]",6,6,# # # # # #,None,105.83527090001735,105.92326130002039,108.09930100000929,108.851233399997,109.05123010001262,109.21138500000234,2.716085300024133,0.08799040000303648,2.1760396999889053,0.7519323999877088,0.19999670001561753,0.16015489998972043
156,20,0.0,2,False,0.0,None,right,False,2,1,0,enc,0,0,0,[],[],6,6,2 1 2 3 4 4,4,0.0,0.0,0.0,0.0,0.0,0.0,0,0.0,0.0,0.0,0.0,0.0
157,21,3.0960008,2,True,0.5,acc,right,False,2,1,6,ret,1,10,0,"['4', '4', '3', '2', '1', '2']","[117.87526640002034, 118.07529110001633, 119.69924070002162, 119.76317429999472, 120.91525650001131, 120.97126720001688]",6,6,# # # # # #,None,117.87526640002034,118.07529110001633,119.69924070002162,119.76317429999472,120.91525650001131,120.97126720001688,2.163881400017999,0.2000246999959927,1.6239496000052895,0.06393359997309744,1.1520822000165936,0.05601070000557229
158,22,0.0,3,False,0.0,None,right,False,2,1,0,enc,0,0,0,[],[],6,6,3 1 3 4 2 3,6,0.0,0.0,0.0,0.0,0.0,0.0,0,0.0,0.0,0.0,0.0,0.0
159,23,7.8641413,3,True,0.5,acc,right,True,2,1,3,ret,1,3,0,"['4', '1', '3', '3', '1', '3']","[128.81134569999995, 128.97960180000518, 130.22718529999838, 136.40382969999337, 136.54770490000374, 136.67548700000043]",6,6,# # # # # #,None,128.81134569999995,128.97960180000518,130.22718529999838,136.40382969999337,136.54770490000374,136.67548700000043,1.3400784999830648,0.16825610000523739,1.2475834999931976,6.176644399994984,0.14387520001037046,0.12778209999669343
160,0,0.0,2,False,0.0,None,right,False,2,1,0,enc,0,0,1,[],[],7,6,2 4 4 2 1 3,4,0.0,0.0,0.0,0.0,0.0,0.0,0,0.0,0.0,0.0,0.0,0.0
161,1,5.1359711,2,True,0.5,acc,right,False,2,1,6,ret,1,10,1,"['2', '4', '4', '2', '1', '3']","[7.498973599984311, 7.9150261000031605, 10.315007199998945, 10.547013200004585, 12.578817100002198, 12.634944699995685]",7,6,# # # # # #,None,7.498973599984311,7.9150261000031605,10.315007199998945,10.547013200004585,12.578817100002198,12.634944699995685,NaN,0.41605250001884997,2.3999810999957845,0.2320060000056401,2.0318038999976125,0.05612759999348782
162,2,0.0,3,False,0.0,None,right,False,2,1,0,enc,0,0,1,[],[],7,6,2 4 3 1 4 4,6,0.0,0.0,0.0,0.0,0.0,0.0,0,0.0,0.0,0.0,0.0,0.0
163,3,2.2399636,3,True,0.5,acc,right,False,2,1,6,ret,1,10,1,"['2', '4', '3', '1', '4', '4']","[19.499006400001235, 20.283041299990145, 20.49895559999277, 21.299002899992047, 21.578814799984684, 21.738970000005793]",7,6,# # # # # #,None,19.499006400001235,20.283041299990145,20.49895559999277,21.299002899992047,21.578814799984684,21.738970000005793,0.36406170000554994,0.7840348999889102,0.21591430000262335,0.800047299999278,0.27981189999263734,0.1601552000211086
164,4,0.0,3,False,0.0,None,right,False,2,1,0,enc,0,0,1,[],[],7,6,3 3 4 4 4 1,6,0.0,0.0,0.0,0.0,0.0,0.0,0,0.0,0.0,0.0,0.0,0.0
165,5,2.2399216,3,True,0.5,acc,right,False,2,1,6,ret,1,10,1,"['3', '3', '4', '4', '4', '1']","[28.810994400002528, 29.074943299987353, 30.07499170000665, 30.746963699988555, 30.922959799994715, 31.05091600000742]",7,6,# # # # # #,None,28.810994400002528,29.074943299987353,30.07499170000665,30.746963699988555,30.922959799994715,31.05091600000742,0.5720243999967352,0.2639488999848254,1.0000484000192955,0.6719719999819063,0.1759961000061594,0.12795620001270436
166,6,0.0,2,False,0.0,None,right,False,2,1,0,enc,0,0,1,[],[],7,6,4 1 2 3 3 2,4,0.0,0.0,0.0,0.0,0.0,0.0,0,0.0,0.0,0.0,0.0,0.0
167,7,2.2077877,2,True,0.5,acc,right,False,2,1,6,ret,1,10,1,"['4', '1', '2', '3', '3', '2']","[40.363091100007296, 40.563071999989916, 41.93107630001032, 42.09099399999832, 42.50694570000633, 42.57087880000472]",7,6,# # # # # #,None,40.363091100007296,40.563071999989916,41.93107630001032,42.09099399999832,42.50694570000633,42.57087880000472,2.8121750999998767,0.19998089998262003,1.3680043000204023,0.1599176999880001,0.41595170000800863,0.06393309999839403
168,8,0.0,3,False,0.0,None,right,False,2,1,0,enc,0,0,0,[],[],7,6,3 4 2 1 2 2,6,0.0,0.0,0.0,0.0,0.0,0.0,0,0.0,0.0,0.0,0.0,0.0
169,9,4.3679841,3,True,0.5,acc,right,True,2,1,5,ret,1,5,0,"['2', '2', '1', '2', '4', '2']","[49.93104749999475, 50.106904199987184, 50.24290290000499, 53.51499419999891, 54.123185100004775, 54.299031600006856]",7,6,# # # # # #,None,49.93104749999475,50.106904199987184,50.24290290000499,53.51499419999891,54.123185100004775,54.299031600006856,0.8601686999900267,0.17585669999243692,0.135998700017808,3.2720912999939173,0.6081909000058658,0.17584650000208057
170,10,0.0,2,False,0.0,None,right,False,2,1,0,enc,0,0,0,[],[],7,6,4 4 3 4 3 3,4,0.0,0.0,0.0,0.0,0.0,0.0,0,0.0,0.0,0.0,0.0,0.0
171,11,5.4720046,2,True,0.5,acc,right,False,2,1,6,ret,1,10,0,"['3', '3', '4', '3', '4', '4']","[62.938951099989936, 63.13092309999047, 66.33081640000455, 66.7149619999982, 68.24298419998377, 68.4109557000047]",7,6,# # # # # #,None,62.938951099989936,63.13092309999047,66.33081640000455,66.7149619999982,68.24298419998377,68.4109557000047,2.1399194999830797,0.19197200000053272,3.1998933000140823,0.3841455999936443,1.5280221999855712,0.16797150002093986
172,12,0.0,2,False,0.0,None,right,False,2,1,0,enc,0,0,0,[],[],7,6,4 1 4 1 4 2,4,0.0,0.0,0.0,0.0,0.0,0.0,0,0.0,0.0,0.0,0.0,0.0
173,13,3.0078946,2,True,0.5,acc,right,False,2,1,6,ret,1,10,0,"['2', '4', '1', '4', '1', '4']","[77.08305560000008, 77.25103200000012, 78.72290910000447, 78.80296070000622, 80.01893039999413, 80.09095019998495]",7,6,# # # # # #,None,77.08305560000008,77.25103200000012,78.72290910000447,78.80296070000622,80.01893039999413,80.09095019998495,2.1720998999953736,0.1679764000000432,1.471877100004349,0.08005160000175238,1.2159696999879088,0.07201979999081232
174,14,0.0,3,False,0.0,None,right,False,2,1,0,enc,0,0,1,[],[],7,6,2 1 4 3 1 2,6,0.0,0.0,0.0,0.0,0.0,0.0,0,0.0,0.0,0.0,0.0,0.0
175,15,1.3679032,3,True,0.5,acc,right,False,2,1,6,ret,1,10,1,"['2', '1', '4', '3', '1', '2']","[87.62698050000472, 87.75477669999236, 87.99496919999365, 88.7309385999979, 88.89936849998776, 88.99488369998289]",7,6,# # # # # #,None,87.62698050000472,87.75477669999236,87.99496919999365,88.7309385999979,88.89936849998776,88.99488369998289,1.0360303000197746,0.12779619998764247,0.24019250000128523,0.7359694000042509,0.16842989998986013,0.09551519999513403
176,16,0.0,2,False,0.0,None,right,False,2,1,0,enc,0,0,0,[],[],7,6,4 4 4 2 4 2,4,0.0,0.0,0.0,0.0,0.0,0.0,0,0.0,0.0,0.0,0.0,0.0
177,17,2.1920464,2,True,0.5,acc,right,False,2,1,6,ret,1,10,0,"['2', '4', '2', '4', '4', '4']","[98.0269818000088, 98.15497020000475, 98.73892979999073, 98.85893919999944, 100.05157079998753, 100.21902819999377]",7,6,# # # # # #,None,98.0269818000088,98.15497020000475,98.73892979999073,98.85893919999944,100.05157079998753,100.21902819999377,2.5320981000259053,0.12798839999595657,0.5839595999859739,0.12000940000871196,1.1926315999880899,0.1674574000062421
178,18,0.0,3,False,0.0,None,right,False,2,1,0,enc,0,0,0,[],[],7,6,3 1 4 4 2 4,6,0.0,0.0,0.0,0.0,0.0,0.0,0,0.0,0.0,0.0,0.0,0.0
179,19,3.6481281,3,True,0.5,acc,right,True,2,1,5,ret,1,5,0,"['4', '2', '4', '2', '1', '3']","[110.12282349998713, 110.32292559999041, 110.47596710000653, 113.13096109998878, 113.29096369998297, 113.77095159998862]",7,6,# # # # # #,None,110.12282349998713,110.32292559999041,110.47596710000653,113.13096109998878,113.29096369998297,113.77095159998862,3.4037952999933623,0.20010210000327788,0.1530415000161156,2.6549939999822527,0.1600025999941863,0.4799879000056535
180,20,0.0,3,False,0.0,None,right,False,2,1,0,enc,0,0,0,[],[],7,6,1 4 2 2 3 4,6,0.0,0.0,0.0,0.0,0.0,0.0,0,0.0,0.0,0.0,0.0,0.0
181,21,3.5759456,3,True,0.5,acc,right,True,2,1,4,ret,1,4,0,"['4', '3', '2', '2', '1', '4']","[121.75505340000382, 121.89903329999652, 122.08297769998899, 124.0827786999871, 124.61889419998624, 125.33099899999797]",7,6,# # # # # #,None,121.75505340000382,121.89903329999652,122.08297769998899,124.0827786999871,124.61889419998624,125.33099899999797,1.4841018000151962,0.14397989999270067,0.1839443999924697,1.999800999998115,0.5361154999991413,0.7121048000117298
182,22,0.0,2,False,0.0,None,right,False,2,1,0,enc,0,0,1,[],[],7,6,1 1 2 1 1 3,4,0.0,0.0,0.0,0.0,0.0,0.0,0,0.0,0.0,0.0,0.0,0.0
183,23,1.1200647,2,True,0.5,acc,right,False,2,1,6,ret,1,10,1,"['1', '1', '2', '1', '1', '3']","[133.8749506000022, 134.0829393999884, 134.33092449998367, 134.43499670000165, 134.8911031000025, 134.99501529999543]",7,6,# # # # # #,None,133.8749506000022,134.0829393999884,134.33092449998367,134.43499670000165,134.8911031000025,134.99501529999543,2.0439516000042204,0.20798879998619668,0.24798509999527596,0.10407220001798123,0.4561064000008628,0.10391219999291934
184,0,0.0,2,False,0.0,None,right,False,2,1,0,enc,0,0,1,[],[],8,6,4 2 3 2 2 2,4,0.0,0.0,0.0,0.0,0.0,0.0,0,0.0,0.0,0.0,0.0,0.0
185,1,1.6640169,2,True,0.5,acc,right,False,2,1,6,ret,1,10,1,"['4', '2', '3', '2', '2', '2']","[8.398175500013167, 8.662114700011443, 9.34227120000287, 9.486134200007655, 9.918179400003282, 10.062192400015192]",8,6,# # # # # #,None,8.398175500013167,8.662114700011443,9.34227120000287,9.486134200007655,9.918179400003282,10.062192400015192,NaN,0.2639391999982763,0.6801564999914262,0.14386300000478514,0.4320451999956276,0.14401300001190975
186,2,0.0,2,False,0.0,None,right,False,2,1,0,enc,0,0,1,[],[],8,6,1 1 1 3 1 4,4,0.0,0.0,0.0,0.0,0.0,0.0,0,0.0,0.0,0.0,0.0,0.0
187,3,1.5039043,2,True,0.5,acc,right,False,2,1,6,ret,1,10,1,"['1', '1', '1', '3', '1', '4']","[18.270229800022207, 18.478145300003234, 18.966209400008665, 19.238351200008765, 19.574142099998426, 19.77413410000736]",8,6,# # # # # #,None,18.270229800022207,18.478145300003234,18.966209400008665,19.238351200008765,19.574142099998426,19.77413410000736,1.708037400007015,0.2079154999810271,0.4880641000054311,0.27214180000009947,0.33579089998966083,0.19999200000893325
188,4,0.0,2,False,0.0,None,right,False,2,1,0,enc,0,0,0,[],[],8,6,2 1 2 1 3 4,4,0.0,0.0,0.0,0.0,0.0,0.0,0,0.0,0.0,0.0,0.0,0.0
189,5,1.7839262,2,True,0.5,acc,right,False,2,1,6,ret,1,10,0,"['4', '3', '1', '2', '1', '2']","[28.782209400000283, 29.022154900012538, 30.230193299998064, 30.302068900025915, 30.51019030000316, 30.56613560000551]",8,6,# # # # # #,None,28.782209400000283,29.022154900012538,30.230193299998064,30.302068900025915,30.51019030000316,30.56613560000551,2.5080752999929246,0.23994550001225434,1.2080383999855258,0.07187560002785176,0.20812139997724444,0.05594530000234954
190,6,0.0,2,False,0.0,None,right,False,2,1,0,enc,0,0,1,[],[],8,6,1 3 1 4 2 3,4,0.0,0.0,0.0,0.0,0.0,0.0,0,0.0,0.0,0.0,0.0,0.0
191,7,1.1760335,2,True,0.5,acc,right,False,2,1,6,ret,1,10,1,"['1', '3', '1', '4', '2', '3']","[39.22215100002359, 39.43816109999898, 39.71002620001673, 39.90220490001957, 40.35817540000426, 40.39818450002349]",8,6,# # # # # #,None,39.22215100002359,39.43816109999898,39.71002620001673,39.90220490001957,40.35817540000426,40.39818450002349,2.1560154000180773,0.21601009997539222,0.2718651000177488,0.19217870000284165,0.4559704999846872,0.0400091000192333
192,8,0.0,3,False,0.0,None,right,False,2,1,0,enc,0,0,1,[],[],8,6,1 4 3 3 2 2,6,0.0,0.0,0.0,0.0,0.0,0.0,0,0.0,0.0,0.0,0.0,0.0
193,9,1.6639591,3,True,0.5,acc,right,False,2,1,6,ret,1,10,1,"['1', '4', '3', '3', '2', '2']","[47.09418290000758, 47.598066400008975, 47.838001500000246, 48.34211120000691, 48.5899801000196, 48.758142000006046]",8,6,# # # # # #,None,47.09418290000758,47.598066400008975,47.838001500000246,48.34211120000691,48.5899801000196,48.758142000006046,0.19599839998409152,0.5038835000013933,0.23993509999127127,0.5041097000066657,0.24786890001269057,0.16816189998644404
194,10,0.0,2,False,0.0,None,right,False,2,1,0,enc,0,0,0,[],[],8,6,4 3 3 4 4 1,4,0.0,0.0,0.0,0.0,0.0,0.0,0,0.0,0.0,0.0,0.0,0.0
195,11,3.7360097,2,True,0.5,acc,right,False,2,1,6,ret,1,10,0,"['1', '4', '4', '3', '3', '4']","[57.29413449999993, 57.42214070001501, 60.254159400006756, 60.702268200024264, 60.870099200023105, 61.030144200020004]",8,6,# # # # # #,None,57.29413449999993,57.42214070001501,60.254159400006756,60.702268200024264,60.870099200023105,61.030144200020004,2.035992499993881,0.12800620001507923,2.8320186999917496,0.44810880001750775,0.16783099999884143,0.1600449999968987
196,12,0.0,2,False,0.0,None,right,False,2,1,0,enc,0,0,0,[],[],8,6,3 1 3 2 4 2,4,0.0,0.0,0.0,0.0,0.0,0.0,0,0.0,0.0,0.0,0.0,0.0
197,13,7.3041409,2,True,0.5,acc,right,True,2,1,5,ret,1,5,0,"['2', '4', '2', '4', '1', '3']","[70.39008100001956, 70.61412690000725, 73.57416100002592, 73.72611640000832, 77.61426480000955, 77.69422190001933]",8,6,# # # # # #,None,70.39008100001956,70.61412690000725,73.57416100002592,73.72611640000832,77.61426480000955,77.69422190001933,2.8599367999995593,0.22404589998768643,2.9600341000186745,0.15195539998239838,3.888148400001228,0.07995710000977851
198,14,0.0,3,False,0.0,None,right,False,2,1,0,enc,0,0,1,[],[],8,6,1 3 2 3 3 3,6,0.0,0.0,0.0,0.0,0.0,0.0,0,0.0,0.0,0.0,0.0,0.0
199,15,1.0719272,3,True,0.5,acc,right,False,2,1,6,ret,1,10,1,"['1', '3', '2', '3', '3', '3']","[84.34221790000447, 84.54195830001845, 84.60611590000917, 85.10219220002182, 85.26996470001177, 85.41414510001778]",8,6,# # # # # #,None,84.34221790000447,84.54195830001845,84.60611590000917,85.10219220002182,85.26996470001177,85.41414510001778,0.14799599998514168,0.19974040001397952,0.06415759999072179,0.49607630001264624,0.16777249998995103,0.1441804000060074
200,16,0.0,3,False,0.0,None,right,False,2,1,0,enc,0,0,1,[],[],8,6,4 2 4 4 2 4,6,0.0,0.0,0.0,0.0,0.0,0.0,0,0.0,0.0,0.0,0.0,0.0
201,17,1.2800216,3,True,0.5,acc,right,False,2,1,6,ret,1,10,1,"['4', '2', '4', '4', '2', '4']","[92.31013920000987, 92.53415870000026, 92.71013820002554, 93.31816450000042, 93.49411420000251, 93.59016079999856]",8,6,# # # # # #,None,92.31013920000987,92.53415870000026,92.71013820002554,93.31816450000042,93.49411420000251,93.59016079999856,0.39599409999209456,0.2240194999903906,0.17597950002527796,0.6080262999748811,0.17594970000209287,0.09604659999604337
202,18,0.0,3,False,0.0,None,right,False,2,1,0,enc,0,0,0,[],[],8,6,1 2 2 3 1 1,6,0.0,0.0,0.0,0.0,0.0,0.0,0,0.0,0.0,0.0,0.0,0.0
203,19,4.4640394,3,True,0.5,acc,right,False,2,1,6,ret,1,10,0,"['1', '1', '3', '2', '2', '1']","[100.14998539999942, 100.32615150001948, 101.50195570001961, 104.36614650001866, 104.52612790002604, 104.61402480001561]",8,6,# # # # # #,None,100.14998539999942,100.32615150001948,101.50195570001961,104.36614650001866,104.52612790002604,104.61402480001561,0.05982460000086576,0.17616610002005473,1.1758042000001296,2.864190799999051,0.15998140000738204,0.08789689998957328
204,20,0.0,3,False,0.0,None,right,False,2,1,0,enc,0,0,0,[],[],8,6,2 3 1 1 3 4,6,0.0,0.0,0.0,0.0,0.0,0.0,0,0.0,0.0,0.0,0.0,0.0
205,21,4.7044127,3,True,0.5,acc,right,False,2,1,6,ret,1,10,0,"['4', '3', '1', '1', '3', '2']","[112.07822620001389, 112.38997290001134, 112.57404160001897, 114.65410860002157, 116.67798180002137, 116.78263890001108]",8,6,# # # # # #,None,112.07822620001389,112.38997290001134,112.57404160001897,114.65410860002157,116.67798180002137,116.78263890001108,0.9642013999982737,0.31174669999745674,0.18406870000762865,2.0800670000026003,2.023873199999798,0.10465709998970851
206,22,0.0,3,False,0.0,None,right,False,2,1,0,enc,0,0,0,[],[],8,6,4 3 2 2 1 3,6,0.0,0.0,0.0,0.0,0.0,0.0,0,0.0,0.0,0.0,0.0,0.0
207,23,3.872047,3,True,0.5,acc,right,False,2,1,6,ret,1,10,0,"['3', '1', '2', '2', '3', '4']","[124.17410630002269, 124.33412680000765, 124.45410120001179, 127.67010050002136, 127.82210530000157, 128.04615330000524]",8,6,# # # # # #,None,124.17410630002269,124.33412680000765,124.45410120001179,127.67010050002136,127.82210530000157,128.04615330000524,0.8914674000116065,0.1600204999849666,0.11997440000413917,3.215999300009571,0.15200479998020455,0.22404800000367686
16,0,0.0,3,False,0.0,None,right,False,2,1,0,enc,0,0,1,[],[],1,6,4 2 2 1 1 2,6,0.0,0.0,0.0,0.0,0.0,0.0,0,0.0,0.0,0.0,0.0,0.0
17,1,1.4399294999893757,3,True,0.5,acc,right,False,2,1,6,ret,1,10,1,"['4', '2', '2', '1', '1', '2']","[5.244663999998011, 5.44451349999872, 5.644594999990659, 6.316580599988811, 6.516515399998752, 6.684593499987386]",1,6,# # # # # #,None,5.244663999998011,5.44451349999872,5.644594999990659,6.316580599988811,6.516515399998752,6.684593499987386,NaN,0.19984950000070967,0.20008149999193847,0.6719855999981519,0.19993480000994168,0.16807809998863377
18,2,0.0,3,False,0.0,None,right,False,2,1,0,enc,0,0,1,[],[],1,6,3 3 2 2 3 3,6,0.0,0.0,0.0,0.0,0.0,0.0,0,0.0,0.0,0.0,0.0,0.0
19,3,1.4640513999911493,3,True,0.5,acc,right,False,2,1,6,ret,1,10,1,"['3', '3', '2', '2', '3', '3']","[13.108541499997955, 13.292648000002373, 13.596485499991104, 14.220523900003172, 14.404563999996753, 14.572592899989104]",1,6,# # # # # #,None,13.108541499997955,13.292648000002373,13.596485499991104,14.220523900003172,14.404563999996753,14.572592899989104,-0.07605199998943135,0.1841065000044182,0.303837499988731,0.6240384000120685,0.18404009999358095,0.1680288999923505
20,4,0.0,2,False,0.0,None,right,False,2,1,0,enc,0,0,0,[],[],1,6,1 4 4 2 2 1,4,0.0,0.0,0.0,0.0,0.0,0.0,0,0.0,0.0,0.0,0.0,0.0
21,5,4.711864099983359,2,True,0.5,acc,right,True,2,1,2,ret,1,2,0,"['1', '2', '4', '2', '1', '2']","[23.900628800009144, 24.260592200007522, 25.96458430000348, 26.956555999990087, 28.332539900002303, 28.612492899992503]",1,6,# # # # # #,None,23.900628800009144,24.260592200007522,25.96458430000348,26.956555999990087,28.332539900002303,28.612492899992503,2.8280359000200406,0.359963399998378,1.7039920999959577,0.9919716999866068,1.3759839000122156,0.2799529999902006
22,6,0.0,3,False,0.0,None,right,False,2,1,0,enc,0,0,0,[],[],1,6,2 3 3 2 4 1,6,0.0,0.0,0.0,0.0,0.0,0.0,0,0.0,0.0,0.0,0.0,0.0
23,7,5.720091199997113,3,True,0.5,acc,right,True,2,1,3,ret,1,3,0,"['2', '4', '2', '3', '2', '1']","[35.13245309999911, 38.100535400008084, 38.52458070000284, 39.9244902000064, 40.492518599989126, 40.852544299996225]",1,6,# # # # # #,None,35.13245309999911,38.100535400008084,38.52458070000284,39.9244902000064,40.492518599989126,40.852544299996225,0.01996020000660792,2.968082300008973,0.42404529999475926,1.3999095000035595,0.5680283999827225,0.36002570000709966
24,8,0.0,2,False,0.0,None,right,False,2,1,0,enc,0,0,0,[],[],1,6,4 3 2 1 3 4,4,0.0,0.0,0.0,0.0,0.0,0.0,0,0.0,0.0,0.0,0.0,0.0
25,9,6.3202605000115,2,True,0.5,acc,right,True,2,1,2,ret,1,2,0,"['4', '3', '4', '3', '2', '1']","[50.46838239999488, 51.076538399996934, 54.24445060000289, 55.20453859999543, 56.42855499999132, 56.78864290000638]",1,6,# # # # # #,None,50.46838239999488,51.076538399996934,54.24445060000289,55.20453859999543,56.42855499999132,56.78864290000638,3.115838099998655,0.6081560000020545,3.167912200005958,0.9600879999925382,1.2240163999958895,0.36008790001505986
26,10,0.0,2,False,0.0,None,right,False,2,1,0,enc,0,0,1,[],[],1,6,4 3 3 1 1 2,4,0.0,0.0,0.0,0.0,0.0,0.0,0,0.0,0.0,0.0,0.0,0.0
27,11,3.7438492999935984,2,True,0.5,acc,right,True,2,1,3,ret,1,3,1,"['4', '3', '2', '1', '4', '1']","[65.65264210000169, 66.44451259999187, 67.1325266000058, 67.67659049999202, 68.85253390000435, 69.39649139999528]",1,6,# # # # # #,None,65.65264210000169,66.44451259999187,67.1325266000058,67.67659049999202,68.85253390000435,69.39649139999528,2.3639991999953054,0.791870499990182,0.6880140000139363,0.5440638999862131,1.1759434000123292,0.5439574999909382
28,12,0.0,3,False,0.0,None,right,False,2,1,0,enc,0,0,0,[],[],1,6,2 3 4 2 2 1,6,0.0,0.0,0.0,0.0,0.0,0.0,0,0.0,0.0,0.0,0.0,0.0
29,13,3.1360838999971747,3,True,0.5,acc,right,False,2,1,6,ret,1,10,0,"['1', '2', '2', '4', '3', '2']","[76.81241340000997, 77.10054340001079, 77.44452299998375, 79.48452769999858, 79.73253010000917, 79.94849730000715]",1,6,# # # # # #,None,76.81241340000997,77.10054340001079,77.44452299998375,79.48452769999858,79.73253010000917,79.94849730000715,0.9159220000146888,0.28813000000081956,0.343979599972954,2.0400047000148334,0.24800240001059137,0.21596719999797642
30,14,0.0,2,False,0.0,None,right,False,2,1,0,enc,0,0,1,[],[],1,6,4 2 3 4 2 1,4,0.0,0.0,0.0,0.0,0.0,0.0,0,0.0,0.0,0.0,0.0,0.0
31,15,3.127852500008885,2,True,0.5,acc,right,True,2,1,5,ret,1,5,1,"['3', '2', '3', '4', '2', '1']","[88.8286584999878, 89.75651929999003, 90.24451230000705, 90.87660129999858, 91.64452490000986, 91.95651099999668]",1,6,# # # # # #,None,88.8286584999878,89.75651929999003,90.24451230000705,90.87660129999858,91.64452490000986,91.95651099999668,2.3801611999806482,0.9278608000022359,0.4879930000170134,0.632088999991538,0.7679236000112724,0.31198609998682514
32,16,0.0,2,False,0.0,None,right,False,2,1,0,enc,0,0,1,[],[],1,6,1 4 1 3 2 4,4,0.0,0.0,0.0,0.0,0.0,0.0,0,0.0,0.0,0.0,0.0,0.0
33,17,2.0079368000151594,2,True,0.5,acc,right,False,2,1,6,ret,1,10,1,"['1', '4', '1', '3', '2', '4']","[100.72457749999012, 101.02866260000155, 101.55647479998879, 101.90055289998418, 102.29261440000846, 102.73251430000528]",1,6,# # # # # #,None,100.72457749999012,101.02866260000155,101.55647479998879,101.90055289998418,102.29261440000846,102.73251430000528,2.268066499993438,0.3040851000114344,0.5278121999872383,0.34407809999538586,0.3920615000242833,0.4398998999968171
34,18,0.0,3,False,0.0,None,right,False,2,1,0,enc,0,0,0,[],[],1,6,2 3 3 3 3 4,6,0.0,0.0,0.0,0.0,0.0,0.0,0,0.0,0.0,0.0,0.0,0.0
35,19,4.960062500002097,3,True,0.5,acc,right,True,2,1,5,ret,1,5,0,"['4', '3', '3', '3', '3', '1']","[109.37254189999658, 109.66052279999712, 110.02852079999866, 112.42052879999392, 113.74055220000446, 114.33260439999867]",1,6,# # # # # #,None,109.37254189999658,109.66052279999712,110.02852079999866,112.42052879999392,113.74055220000446,114.33260439999867,0.1400275999912992,0.287980900000548,0.3679980000015348,2.3920079999952577,1.320023400010541,0.5920521999942139
36,20,0.0,3,False,0.0,None,right,False,2,1,0,enc,0,0,1,[],[],1,6,1 1 3 2 2 4,6,0.0,0.0,0.0,0.0,0.0,0.0,0,0.0,0.0,0.0,0.0,0.0
37,21,1.400099799997406,3,True,0.5,acc,right,True,2,1,5,ret,1,5,1,"['1', '3', '3', '2', '2', '4']","[120.82851510000182, 121.02051679999568, 121.2045713000116, 121.70051619998412, 121.96459300001152, 122.22861489999923]",1,6,# # # # # #,None,120.82851510000182,121.02051679999568,121.2045713000116,121.70051619998412,121.96459300001152,122.22861489999923,-0.0040892999968491495,0.19200169999385253,0.18405450001591817,0.4959448999725282,0.26407680002739653,0.26402189998771064
38,22,0.0,2,False,0.0,None,right,False,2,1,0,enc,0,0,0,[],[],1,6,4 1 1 1 4 4,4,0.0,0.0,0.0,0.0,0.0,0.0,0,0.0,0.0,0.0,0.0,0.0
39,23,4.744123800017405,2,True,0.5,acc,right,True,2,1,3,ret,1,3,0,"['4', '4', '4', '1', '3', '1']","[130.8604023999942, 131.20450900000287, 132.15659379999852, 133.62048330000835, 135.23657320000348, 135.6045262000116]",1,6,# # # # # #,None,130.8604023999942,131.20450900000287,132.15659379999852,133.62048330000835,135.23657320000348,135.6045262000116,2.131787499994971,0.3441066000086721,0.9520847999956459,1.4638895000098273,1.6160898999951314,0.3679530000081286
40,0,0.0,3,False,0.0,None,right,False,2,1,0,enc,0,0,1,[],[],2,6,3 2 2 3 2 3,6,0.0,0.0,0.0,0.0,0.0,0.0,0,0.0,0.0,0.0,0.0,0.0
41,1,2.184126699983608,3,True,0.5,acc,right,True,2,1,4,ret,1,4,1,"['3', '2', '2', '3', '3', '2']","[4.662126700015506, 4.934172600012971, 5.23819580001873, 5.542229100014083, 6.566122400021413, 6.846253399999114]",2,6,# # # # # #,None,4.662126700015506,4.934172600012971,5.23819580001873,5.542229100014083,6.566122400021413,6.846253399999114,NaN,0.2720458999974653,0.30402320000575855,0.30403329999535345,1.0238933000073303,0.2801309999777004
42,2,0.0,2,False,0.0,None,right,False,2,1,0,enc,0,0,1,[],[],2,6,2 4 4 4 4 1,4,0.0,0.0,0.0,0.0,0.0,0.0,0,0.0,0.0,0.0,0.0,0.0
43,3,2.231931799993617,2,True,0.5,acc,right,False,2,1,6,ret,1,10,1,"['2', '4', '4', '4', '4', '1']","[15.166220300015993, 15.92622590000974, 16.262184200022602, 16.63807159999851, 17.046199900010834, 17.39815210000961]",2,6,# # # # # #,None,15.166220300015993,15.92622590000974,16.262184200022602,16.63807159999851,17.046199900010834,17.39815210000961,1.8199669000168797,0.7600055999937467,0.3359583000128623,0.3758873999759089,0.40812830001232214,0.35195219999877736
44,4,0.0,3,False,0.0,None,right,False,2,1,0,enc,0,0,1,[],[],2,6,1 4 1 4 4 3,6,0.0,0.0,0.0,0.0,0.0,0.0,0,0.0,0.0,0.0,0.0,0.0
45,5,2.7281129000184587,3,True,0.5,acc,right,True,2,1,3,ret,1,3,1,"['1', '4', '4', '4', '3', '1']","[23.81426929999725, 24.13416060002055, 24.47016349999467, 24.9582320000045, 26.00615560001461, 26.54238220001571]",2,6,# # # # # #,None,23.81426929999725,24.13416060002055,24.47016349999467,24.9582320000045,26.00615560001461,26.54238220001571,-0.08388280001236126,0.3198913000233006,0.3360028999741189,0.48806850000983104,1.0479236000101082,0.5362266000011005
46,6,0.0,3,False,0.0,None,right,False,2,1,0,enc,0,0,0,[],[],2,6,1 3 1 3 1 3,6,0.0,0.0,0.0,0.0,0.0,0.0,0,0.0,0.0,0.0,0.0,0.0
47,7,3.2800355000072163,3,True,0.5,acc,right,True,2,1,4,ret,1,4,0,"['3', '1', '3', '3', '1', '1']","[33.84615440000198, 34.33412810001755, 34.81414120001136, 36.10219140001573, 36.67013240000233, 37.126189900009194]",2,6,# # # # # #,None,33.84615440000198,34.33412810001755,34.81414120001136,36.10219140001573,36.67013240000233,37.126189900009194,0.8037721999862697,0.48797370001557283,0.4800130999938119,1.2880502000043634,0.5679409999866039,0.45605750000686385
48,8,0.0,2,False,0.0,None,right,False,2,1,0,enc,0,0,0,[],[],2,6,2 1 4 4 4 2,4,0.0,0.0,0.0,0.0,0.0,0.0,0,0.0,0.0,0.0,0.0,0.0
49,9,4.0719209999952,2,True,0.5,acc,right,True,2,1,4,ret,1,4,0,"['2', '4', '4', '4', '4', '1']","[45.99822900001891, 46.55810640001437, 48.21413979999488, 48.53418600000441, 49.798148700007005, 50.07015000001411]",2,6,# # # # # #,None,45.99822900001891,46.55810640001437,48.21413979999488,48.53418600000441,49.798148700007005,50.07015000001411,2.372039100009715,0.5598773999954574,1.6560333999805152,0.32004620000952855,1.263962700002594,0.2720013000071049
50,10,0.0,3,False,0.0,None,right,False,2,1,0,enc,0,0,0,[],[],2,6,3 3 4 1 2 3,6,0.0,0.0,0.0,0.0,0.0,0.0,0,0.0,0.0,0.0,0.0,0.0
51,11,3.192029099998764,3,True,0.5,acc,right,True,2,1,4,ret,1,4,0,"['3', '2', '1', '4', '4', '1']","[56.63008590001846, 56.77418840001337, 57.046154800016666, 58.6462240999972, 58.94220280001173, 59.82211500001722]",2,6,# # # # # #,None,56.63008590001846,56.77418840001337,57.046154800016666,58.6462240999972,58.94220280001173,59.82211500001722,0.059935900004347786,0.14410249999491498,0.27196640000329353,1.6000692999805324,0.29597870001452975,0.8799122000054922
52,12,0.0,2,False,0.0,None,right,False,2,1,0,enc,0,0,0,[],[],2,6,4 2 2 2 3 1,4,0.0,0.0,0.0,0.0,0.0,0.0,0,0.0,0.0,0.0,0.0,0.0
53,13,3.4639169999863952,2,True,0.5,acc,right,True,2,1,3,ret,1,3,0,"['1', '3', '4', '4', '4', '4']","[69.21424230001867, 69.70214249999844, 70.47021290002158, 71.14222320000408, 71.82215880000149, 72.67815930000506]",2,6,# # # # # #,None,69.21424230001867,69.70214249999844,70.47021290002158,71.14222320000408,71.82215880000149,72.67815930000506,2.892127300001448,0.4879001999797765,0.7680704000231344,0.6720102999825031,0.6799355999974068,0.8560005000035744
54,14,0.0,3,False,0.0,None,right,False,2,1,0,enc,0,0,1,[],[],2,6,3 2 2 1 1 4,6,0.0,0.0,0.0,0.0,0.0,0.0,0,0.0,0.0,0.0,0.0,0.0
55,15,1.3759653000161052,3,True,0.5,acc,right,False,2,1,6,ret,1,10,1,"['3', '2', '2', '1', '1', '4']","[79.06215189999784, 79.28605850000167, 79.51014369999757, 80.04612939999788, 80.24613139999565, 80.43811720001395]",2,6,# # # # # #,None,79.06215189999784,79.28605850000167,79.51014369999757,80.04612939999788,80.24613139999565,80.43811720001395,-0.11600740000721999,0.22390660000382923,0.2240851999958977,0.5359857000003103,0.2000019999977667,0.19198580001830123
56,16,0.0,2,False,0.0,None,right,False,2,1,0,enc,0,0,0,[],[],2,6,4 3 2 1 2 2,4,0.0,0.0,0.0,0.0,0.0,0.0,0,0.0,0.0,0.0,0.0,0.0
57,17,5.31194789998699,2,True,0.5,acc,right,True,2,1,2,ret,1,2,0,"['4', '2', '2', '1', '3', '2']","[89.41416020001634, 91.21410660000402, 91.41408899999806, 94.1982405000017, 94.5342150000215, 94.72610810000333]",2,6,# # # # # #,None,89.41416020001634,91.21410660000402,91.41408899999806,94.1982405000017,94.5342150000215,94.72610810000333,2.4760430000023916,1.7999463999876752,0.19998239999404177,2.784151500003645,0.3359745000198018,0.1918930999818258
58,18,0.0,2,False,0.0,None,right,False,2,1,0,enc,0,0,1,[],[],2,6,3 1 4 4 2 3,4,0.0,0.0,0.0,0.0,0.0,0.0,0,0.0,0.0,0.0,0.0,0.0
59,19,1.8880489000002847,2,True,0.5,acc,right,False,2,1,6,ret,1,10,1,"['3', '1', '4', '4', '2', '3']","[103.27014700000291, 103.67822940001497, 104.2941800999979, 104.64614990001428, 104.95021340000676, 105.1581959000032]",2,6,# # # # # #,None,103.27014700000291,103.67822940001497,104.2941800999979,104.64614990001428,104.95021340000676,105.1581959000032,2.0440388999995776,0.40808240001206286,0.6159506999829318,0.3519698000163771,0.3040634999924805,0.20798249999643303
60,20,0.0,3,False,0.0,None,right,False,2,1,0,enc,0,0,0,[],[],2,6,1 1 4 4 3 2,6,0.0,0.0,0.0,0.0,0.0,0.0,0,0.0,0.0,0.0,0.0,0.0
61,21,3.8799024999898393,3,True,0.5,acc,right,False,2,1,6,ret,1,10,0,"['2', '3', '4', '4', '1', '1']","[113.6941529000178, 114.01420480001252, 114.34221210001851, 117.16613040000084, 117.39012830000138, 117.57405540000764]",2,6,# # # # # #,None,113.6941529000178,114.01420480001252,114.34221210001851,117.16613040000084,117.39012830000138,117.57405540000764,2.035957000014605,0.3200518999947235,0.3280073000059929,2.8239182999823242,0.22399790000054054,0.18392710000625812
62,22,0.0,2,False,0.0,None,right,False,2,1,0,enc,0,0,1,[],[],2,6,4 2 1 2 4 1,4,0.0,0.0,0.0,0.0,0.0,0.0,0,0.0,0.0,0.0,0.0,0.0
63,23,3.448506799992174,2,True,0.5,acc,right,True,2,1,3,ret,1,3,1,"['4', '1', '1', '2', '1', '4']","[127.63815070001874, 128.00607840000885, 129.5021306000126, 129.88609220000217, 130.81414689999656, 131.08665750001092]",2,6,# # # # # #,None,127.63815070001874,128.00607840000885,129.5021306000126,129.88609220000217,130.81414689999656,131.08665750001092,3.564095300011104,0.3679276999901049,1.49605220000376,0.38396159998956136,0.9280546999943908,0.2725106000143569
64,0,0.0,2,False,0.0,None,right,False,2,1,0,enc,0,0,1,[],[],3,6,1 3 3 1 2 3,4,0.0,0.0,0.0,0.0,0.0,0.0,0,0.0,0.0,0.0,0.0,0.0
65,1,16.419047000003047,2,True,0.5,acc,right,True,2,1,4,ret,1,4,1,"['m', '1', '3', '1', '2', '3']","[-6.173470800014911, 7.773455599992303, 8.0933631999942, 9.429389600001741, 9.78148110001348, 10.245576199988136]",3,6,# # # # # #,None,-6.173470800014911,7.773455599992303,8.0933631999942,9.429389600001741,9.78148110001348,10.245576199988136,NaN,13.946926400007214,0.31990760000189766,1.3360264000075404,0.3520915000117384,0.4640950999746565
66,2,0.0,3,False,0.0,None,right,False,2,1,0,enc,0,0,0,[],[],3,6,2 3 1 2 2 1,6,0.0,0.0,0.0,0.0,0.0,0.0,0,0.0,0.0,0.0,0.0,0.0
67,3,2.7283567000122275,3,True,0.5,acc,right,True,2,1,4,ret,1,4,0,"['1', '2', '2', '3', '1', '2']","[18.05350159999216, 18.237482399999863, 18.43745259998832, 20.293438299995614, 20.57347010000376, 20.781858300004387]",3,6,# # # # # #,None,18.05350159999216,18.237482399999863,18.43745259998832,20.293438299995614,20.57347010000376,20.781858300004387,1.3079254000040237,0.18398080000770278,0.19997019998845644,1.8559857000072952,0.2800318000081461,0.20838820000062697
68,4,0.0,3,False,0.0,None,right,False,2,1,0,enc,0,0,1,[],[],3,6,4 1 3 2 2 1,6,0.0,0.0,0.0,0.0,0.0,0.0,0,0.0,0.0,0.0,0.0,0.0
69,5,2.2160028000071184,3,True,0.5,acc,right,True,2,1,5,ret,1,5,1,"['3', '1', '3', '2', '2', '1']","[27.885445899999468, 28.82943539999542, 29.285438899998553, 29.613424000010127, 29.87735850000172, 30.101448700006586]",3,6,# # # # # #,None,27.885445899999468,28.82943539999542,29.285438899998553,29.613424000010127,29.87735850000172,30.101448700006586,0.6035875999950804,0.9439894999959506,0.45600350000313483,0.3279851000115741,0.263934499991592,0.22409020000486635
70,6,0.0,2,False,0.0,None,right,False,2,1,0,enc,0,0,0,[],[],3,6,3 4 4 3 4 1,4,0.0,0.0,0.0,0.0,0.0,0.0,0,0.0,0.0,0.0,0.0,0.0
71,7,5.343900399981067,2,True,0.5,acc,right,True,2,1,2,ret,1,2,0,"['3', '4', '4', '1', '2', '3']","[39.157439300004626, 40.23753509999369, 43.32539710000856, 43.62943050000467, 44.01344959999551, 44.50133969998569]",3,6,# # # # # #,None,39.157439300004626,40.23753509999369,43.32539710000856,43.62943050000467,44.01344959999551,44.50133969998569,2.55599059999804,1.080095799989067,3.0878620000148658,0.3040333999961149,0.3840190999908373,0.4878900999901816
72,8,0.0,3,False,0.0,None,right,False,2,1,0,enc,0,0,1,[],[],3,6,1 2 2 4 4 3,6,0.0,0.0,0.0,0.0,0.0,0.0,0,0.0,0.0,0.0,0.0,0.0
73,9,1.271972900023684,3,True,0.5,acc,right,False,2,1,6,ret,1,10,1,"['1', '2', '2', '4', '4', '3']","[50.72537979998742, 50.90940340000088, 51.093389399989974, 51.629505599994445, 51.8134427999903, 51.997352700011106]",3,6,# # # # # #,None,50.72537979998742,50.90940340000088,51.093389399989974,51.629505599994445,51.8134427999903,51.997352700011106,-0.27595989999827,0.18402360001346096,0.1839859999890905,0.5361162000044715,0.183937199995853,0.18390990002080798
74,10,0.0,2,False,0.0,None,right,False,2,1,0,enc,0,0,0,[],[],3,6,4 4 3 2 3 3,4,0.0,0.0,0.0,0.0,0.0,0.0,0,0.0,0.0,0.0,0.0,0.0
75,11,3.863914300018223,2,True,0.5,acc,right,True,2,1,5,ret,1,5,0,"['3', '3', '2', '3', '4', '3']","[61.50152019999223, 61.83728539998992, 63.261466399999335, 63.56544400000712, 65.08541989998776, 65.36543450001045]",3,6,# # # # # #,None,61.50152019999223,61.83728539998992,63.261466399999335,63.56544400000712,65.08541989998776,65.36543450001045,3.004167499981122,0.33576519999769516,1.424181000009412,0.3039776000077836,1.5199758999806363,0.28001460002269596
76,12,0.0,3,False,0.0,None,right,False,2,1,0,enc,0,0,0,[],[],3,6,2 4 3 2 2 4,6,0.0,0.0,0.0,0.0,0.0,0.0,0,0.0,0.0,0.0,0.0,0.0
77,13,3.616023999988101,3,True,0.5,acc,right,True,2,1,4,ret,1,4,0,"['4', '2', '2', '2', '4', '1']","[72.19750239999848, 72.43741939999745, 72.66190340000321, 75.30147189999116, 75.54153349998523, 75.81352639998659]",3,6,# # # # # #,None,72.19750239999848,72.43741939999745,72.66190340000321,75.30147189999116,75.54153349998523,75.81352639998659,0.3320678999880329,0.2399169999989681,0.2244840000057593,2.639568499987945,0.24006159999407828,0.2719929000013508
78,14,0.0,2,False,0.0,None,right,False,2,1,0,enc,0,0,0,[],[],3,6,2 3 4 4 1 2,4,0.0,0.0,0.0,0.0,0.0,0.0,0,0.0,0.0,0.0,0.0,0.0
79,15,2.9274868000065912,2,True,0.5,acc,right,False,2,1,6,ret,1,10,0,"['2', '1', '4', '4', '3', '2']","[85.48576939999475, 85.72530990000814, 86.44543160000467, 86.66953809998813, 88.20553380000638, 88.41325620000134]",3,6,# # # # # #,None,85.48576939999475,85.72530990000814,86.44543160000467,86.66953809998813,88.20553380000638,88.41325620000134,3.172243000008166,0.23954050001339056,0.7201216999965254,0.22410649998346344,1.5359957000182476,0.20772239999496378
80,16,0.0,3,False,0.0,None,right,False,2,1,0,enc,0,0,1,[],[],3,6,2 1 1 2 4 1,6,0.0,0.0,0.0,0.0,0.0,0.0,0,0.0,0.0,0.0,0.0,0.0
81,17,1.8001065999851562,3,True,0.5,acc,right,False,2,1,6,ret,1,10,1,"['2', '1', '1', '2', '4', '1']","[95.0373694000009, 95.4454345999984, 95.669439099991, 96.34952809999231, 96.60542040001019, 96.83747599998605]",3,6,# # # # # #,None,95.0373694000009,95.4454345999984,95.669439099991,96.34952809999231,96.60542040001019,96.83747599998605,0.12411319999955595,0.4080651999975089,0.22400449999258853,0.6800890000013169,0.25589230001787655,0.23205559997586533
82,18,0.0,3,False,0.0,None,right,False,2,1,0,enc,0,0,0,[],[],3,6,3 2 1 1 3 2,6,0.0,0.0,0.0,0.0,0.0,0.0,0,0.0,0.0,0.0,0.0,0.0
83,19,2.2799088000028847,3,True,0.5,acc,right,True,2,1,4,ret,1,4,0,"['2', '3', '1', '3', '2', '1']","[103.76551460000337, 103.97347840000293, 104.22138820000691, 105.68538670000271, 105.85346459998982, 106.04542340000626]",3,6,# # # # # #,None,103.76551460000337,103.97347840000293,104.22138820000691,105.68538670000271,105.85346459998982,106.04542340000626,0.42803860001731664,0.20796379999956116,0.24790980000398122,1.463998499995796,0.16807789998711087,0.19195880001643673
84,20,0.0,2,False,0.0,None,right,False,2,1,0,enc,0,0,1,[],[],3,6,1 4 1 4 2 1,4,0.0,0.0,0.0,0.0,0.0,0.0,0,0.0,0.0,0.0,0.0,0.0
85,21,1.5440712000126953,2,True,0.5,acc,right,False,2,1,6,ret,1,10,1,"['1', '4', '1', '4', '2', '1']","[115.09339039999759, 115.39737429999514, 115.7014363000053, 116.02146119999816, 116.34137660000124, 116.63746160001028]",3,6,# # # # # #,None,115.09339039999759,115.39737429999514,115.7014363000053,116.02146119999816,116.34137660000124,116.63746160001028,2.5479669999913312,0.30398389999754727,0.3040620000101626,0.320024899992859,0.31991540000308305,0.29608500000904314
86,22,0.0,2,False,0.0,None,right,False,2,1,0,enc,0,0,1,[],[],3,6,1 3 2 1 1 3,4,0.0,0.0,0.0,0.0,0.0,0.0,0,0.0,0.0,0.0,0.0,0.0
87,23,1.8320857000071555,2,True,0.5,acc,right,False,2,1,6,ret,1,10,1,"['1', '3', '2', '1', '1', '3']","[124.92535360000329, 125.15723589999834, 125.75743520000833, 126.14151350001339, 126.53338680000161, 126.75743930001045]",3,6,# # # # # #,None,124.92535360000329,125.15723589999834,125.75743520000833,126.14151350001339,126.53338680000161,126.75743930001045,1.7878919999930076,0.23188229999504983,0.6001993000099901,0.3840783000050578,0.3918732999882195,0.22405250000883825
88,0,0.0,2,False,0.0,None,right,False,2,1,0,enc,0,0,1,[],[],4,6,4 4 1 3 2 2,4,0.0,0.0,0.0,0.0,0.0,0.0,0,0.0,0.0,0.0,0.0,0.0
89,1,1.2962439000257289,2,True,0.5,acc,right,False,2,1,6,ret,1,10,1,"['4', '4', '1', '3', '2', '2']","[6.850933299981989, 7.035042300005443, 7.506888300005812, 7.762995500001125, 7.9710430999984965, 8.147177200007718]",4,6,# # # # # #,None,6.850933299981989,7.035042300005443,7.506888300005812,7.762995500001125,7.9710430999984965,8.147177200007718,NaN,0.18410900002345443,0.4718460000003688,0.25610719999531284,0.20804759999737144,0.17613410000922158
90,2,0.0,2,False,0.0,None,right,False,2,1,0,enc,0,0,0,[],[],4,6,3 2 1 3 4 3,4,0.0,0.0,0.0,0.0,0.0,0.0,0,0.0,0.0,0.0,0.0,0.0
91,3,4.8798517999821325,2,True,0.5,acc,right,True,2,1,3,ret,1,3,0,"['3', '4', '2', '3', '2', '1']","[18.26713930000551, 18.594991099991603, 21.043025399994804, 21.394984499987913, 22.96296710000024, 23.146991099987645]",4,6,# # # # # #,None,18.26713930000551,18.594991099991603,21.043025399994804,21.394984499987913,22.96296710000024,23.146991099987645,3.6199620999977924,0.3278517999860924,2.4480343000032008,0.3519590999931097,1.5679826000123285,0.18402399998740293
92,4,0.0,3,False,0.0,None,right,False,2,1,0,enc,0,0,0,[],[],4,6,2 3 2 3 1 2,6,0.0,0.0,0.0,0.0,0.0,0.0,0,0.0,0.0,0.0,0.0,0.0
93,5,7.320065000007162,3,True,0.5,acc,right,True,2,1,3,ret,1,3,0,"['2', '1', '3', '3', '2', '4']","[30.122996899997815, 34.618920299981255, 34.83498650000547, 36.71497229998931, 36.978983799985144, 37.44306190000498]",4,6,# # # # # #,None,30.122996899997815,34.618920299981255,34.83498650000547,36.71497229998931,36.978983799985144,37.44306190000498,0.4760058000101708,4.49592339998344,0.2160662000242155,1.8799857999838423,0.2640114999958314,0.4640781000198331
94,6,0.0,3,False,0.0,None,right,False,2,1,0,enc,0,0,1,[],[],4,6,4 4 4 2 2 1,6,0.0,0.0,0.0,0.0,0.0,0.0,0,0.0,0.0,0.0,0.0,0.0
95,7,0.9599427999928594,3,True,0.5,acc,right,False,2,1,6,ret,1,10,1,"['4', '4', '4', '2', '2', '1']","[43.97105359999114, 44.13103799999226, 44.35498119998374, 44.5709513000038, 44.74713299999712, 44.930996399984]",4,6,# # # # # #,None,43.97105359999114,44.13103799999226,44.35498119998374,44.5709513000038,44.74713299999712,44.930996399984,0.0279916999861598,0.15998440000112168,0.22394319999148138,0.21597010002005845,0.17618169999332167,0.18386339998687617
96,8,0.0,2,False,0.0,None,right,False,2,1,0,enc,0,0,1,[],[],4,6,3 1 4 3 4 1,4,0.0,0.0,0.0,0.0,0.0,0.0,0,0.0,0.0,0.0,0.0,0.0
97,9,2.4797990999941253,2,True,0.5,acc,right,True,2,1,5,ret,1,5,1,"['3', '1', '4', '3', '2', '1']","[53.45917560000089, 53.731114099995466, 54.019043999986025, 54.7791154999868, 55.24298379998072, 55.938974699995015]",4,6,# # # # # #,None,53.45917560000089,53.731114099995466,54.019043999986025,54.7791154999868,55.24298379998072,55.938974699995015,2.0281792000168934,0.271938499994576,0.2879298999905586,0.7600715000007767,0.4638682999939192,0.6959909000142943
98,10,0.0,3,False,0.0,None,right,False,2,1,0,enc,0,0,1,[],[],4,6,3 1 4 2 4 3,6,0.0,0.0,0.0,0.0,0.0,0.0,0,0.0,0.0,0.0,0.0,0.0
99,11,2.768057500012219,3,True,0.5,acc,right,True,2,1,5,ret,1,5,1,"['3', '1', '4', '2', '4', '1']","[62.41900739999255, 62.86701240000548, 63.14696419998654, 63.41901389998384, 64.00297470000805, 65.18706490000477]",4,6,# # # # # #,None,62.41900739999255,62.86701240000548,63.14696419998654,63.41901389998384,64.00297470000805,65.18706490000477,-0.019967300002463162,0.44800500001292676,0.27995179998106323,0.27204969999729656,0.5839608000242151,1.1840901999967173
100,12,0.0,2,False,0.0,None,right,False,2,1,0,enc,0,0,0,[],[],4,6,2 1 4 1 4 4,4,0.0,0.0,0.0,0.0,0.0,0.0,0,0.0,0.0,0.0,0.0,0.0
101,13,7.208016499993391,2,True,0.5,acc,right,True,2,1,4,ret,1,4,0,"['4', '4', '1', '2', '1', '3']","[74.09099460000289, 74.46707959999912, 77.75501009999425, 78.03500509998412, 79.77888520000852, 81.29901109999628]",4,6,# # # # # #,None,74.09099460000289,74.46707959999912,77.75501009999425,78.03500509998412,79.77888520000852,81.29901109999628,2.403929699998116,0.37608499999623746,3.2879304999951273,0.2799949999898672,1.7438801000243984,1.520125899987761
102,14,0.0,3,False,0.0,None,right,False,2,1,0,enc,0,0,0,[],[],4,6,4 4 4 2 2 3,6,0.0,0.0,0.0,0.0,0.0,0.0,0,0.0,0.0,0.0,0.0,0.0
103,15,0.9359799000085331,3,True,0.5,acc,right,False,2,1,6,ret,1,10,0,"['3', '2', '2', '4', '4', '4']","[88.22700349998195, 88.41098809998948, 88.60297559999162, 88.81098139999085, 88.98709599999711, 89.16298339999048]",4,6,# # # # # #,None,88.22700349998195,88.41098809998948,88.60297559999162,88.81098139999085,88.98709599999711,89.16298339999048,0.4279923999856692,0.18398460000753403,0.19198750000214204,0.20800579999922775,0.17611460000625812,0.17588739999337122
104,16,0.0,2,False,0.0,None,right,False,2,1,0,enc,0,0,1,[],[],4,6,4 2 3 2 4 3,4,0.0,0.0,0.0,0.0,0.0,0.0,0,0.0,0.0,0.0,0.0,0.0
105,17,2.424084099999164,2,True,0.5,acc,right,True,2,1,5,ret,1,5,1,"['4', '2', '3', '2', '4', '1']","[98.94698899998912, 99.60298830000102, 100.14710159998504, 100.5229779999936, 101.1229412999819, 101.37107309998828]",4,6,# # # # # #,None,98.94698899998912,99.60298830000102,100.14710159998504,100.5229779999936,101.1229412999819,101.37107309998828,3.284005599998636,0.6559993000118993,0.5441132999840192,0.3758764000085648,0.5999632999883033,0.24813180000637658
106,18,0.0,2,False,0.0,None,right,False,2,1,0,enc,0,0,0,[],[],4,6,4 4 2 3 3 4,4,0.0,0.0,0.0,0.0,0.0,0.0,0,0.0,0.0,0.0,0.0,0.0
107,19,3.479975399997784,2,True,0.5,acc,right,True,2,1,5,ret,1,5,0,"['4', '2', '3', '2', '4', '4']","[110.96303449998959, 111.45963249998749, 112.51502869999968, 112.81893899998977, 114.07499969998025, 114.44300989998737]",4,6,# # # # # #,None,110.96303449998959,111.45963249998749,112.51502869999968,112.81893899998977,114.07499969998025,114.44300989998737,3.09196140000131,0.49659799999790266,1.0553962000121828,0.30391029999009334,1.2560606999904849,0.36801020000712015
108,20,0.0,3,False,0.0,None,right,False,2,1,0,enc,0,0,1,[],[],4,6,3 3 3 1 1 2,6,0.0,0.0,0.0,0.0,0.0,0.0,0,0.0,0.0,0.0,0.0,0.0
109,21,1.2079683000047226,3,True,0.5,acc,right,False,2,1,6,ret,1,10,1,"['3', '3', '3', '1', '1', '2']","[120.93107160000363, 121.10698179999599, 121.27501260000281, 121.69898939999985, 121.9310797000071, 122.13903990000836]",4,6,# # # # # #,None,120.93107160000363,121.10698179999599,121.27501260000281,121.69898939999985,121.9310797000071,122.13903990000836,-0.011938299983739853,0.17591019999235868,0.16803080000681803,0.4239767999970354,0.2320903000072576,0.20796020000125282
110,22,0.0,3,False,0.0,None,right,False,2,1,0,enc,0,0,0,[],[],4,6,1 4 3 2 2 1,6,0.0,0.0,0.0,0.0,0.0,0.0,0,0.0,0.0,0.0,0.0,0.0
111,23,3.023944800021127,3,True,0.5,acc,right,True,2,1,4,ret,1,4,0,"['1', '2', '2', '4', '2', '1']","[129.01100549998228, 129.21099729998969, 129.4510569999984, 131.27500829999917, 131.69895890000043, 132.0349503000034]",4,6,# # # # # #,None,129.01100549998228,129.21099729998969,129.4510569999984,131.27500829999917,131.69895890000043,132.0349503000034,0.37196559997391887,0.19999180000741035,0.24005970000871457,1.8239513000007719,0.4239506000012625,0.33599140000296757
112,0,0.0,3,False,0.0,None,right,False,2,1,0,enc,0,0,1,[],[],5,6,4 3 1 1 1 1,6,0.0,0.0,0.0,0.0,0.0,0.0,0,0.0,0.0,0.0,0.0,0.0
113,1,1.3198895000095945,3,True,0.5,acc,right,False,2,1,6,ret,1,10,1,"['4', '3', '1', '1', '1', '1']","[5.300982799992198, 5.692909600009443, 5.9888799999898765, 6.220899500011001, 6.4128142000117805, 6.620872300001793]",5,6,# # # # # #,None,5.300982799992198,5.692909600009443,5.9888799999898765,6.220899500011001,6.4128142000117805,6.620872300001793,NaN,0.3919268000172451,0.2959703999804333,0.23201950002112426,0.1919147000007797,0.20805809999001212
114,2,0.0,3,False,0.0,None,right,False,2,1,0,enc,0,0,1,[],[],5,6,2 4 2 3 2 4,6,0.0,0.0,0.0,0.0,0.0,0.0,0,0.0,0.0,0.0,0.0,0.0
115,3,1.423951999982819,3,True,0.5,acc,right,False,2,1,6,ret,1,10,1,"['2', '4', '2', '3', '2', '4']","[13.716977300005965, 13.91686229998595, 14.172885000007227, 14.708865900000092, 14.916871900000842, 15.140929299988784]",5,6,# # # # # #,None,13.716977300005965,13.91686229998595,14.172885000007227,14.708865900000092,14.916871900000842,15.140929299988784,0.5961050000041723,0.19988499997998588,0.25602270002127625,0.5359808999928646,0.20800600000075065,0.2240573999879416
116,4,0.0,2,False,0.0,None,right,False,2,1,0,enc,0,0,1,[],[],5,6,4 3 3 2 2 2,4,0.0,0.0,0.0,0.0,0.0,0.0,0,0.0,0.0,0.0,0.0,0.0
117,5,1.4240581000049133,2,True,0.5,acc,right,False,2,1,6,ret,1,10,1,"['4', '3', '3', '2', '2', '2']","[23.25293749998673, 23.532872799987672, 23.804968899989035, 24.15694089999306, 24.46107709998614, 24.676995599991642]",5,6,# # # # # #,None,23.25293749998673,23.532872799987672,23.804968899989035,24.15694089999306,24.46107709998614,24.676995599991642,1.6120081999979448,0.27993530000094324,0.2720961000013631,0.3519720000040252,0.3041361999930814,0.2159185000055004
118,6,0.0,2,False,0.0,None,right,False,2,1,0,enc,0,0,1,[],[],5,6,2 3 1 3 2 3,4,0.0,0.0,0.0,0.0,0.0,0.0,0,0.0,0.0,0.0,0.0,0.0
119,7,1.232015899993712,2,True,0.5,acc,right,False,2,1,6,ret,1,10,1,"['2', '3', '1', '3', '2', '3']","[33.18085090001114, 33.38887039999827, 33.66884699999355, 33.90892899999744, 34.204851699993014, 34.41286680000485]",5,6,# # # # # #,None,33.18085090001114,33.38887039999827,33.66884699999355,33.90892899999744,34.204851699993014,34.41286680000485,2.003855300019495,0.20801949998713098,0.2799765999952797,0.2400820000038948,0.29592269999557175,0.20801510001183487
120,8,0.0,2,False,0.0,None,right,False,2,1,0,enc,0,0,0,[],[],5,6,3 2 3 1 3 4,4,0.0,0.0,0.0,0.0,0.0,0.0,0,0.0,0.0,0.0,0.0,0.0
121,9,5.4320715999929226,2,True,0.5,acc,right,True,2,1,3,ret,1,3,0,"['4', '3', '3', '3', '3', '2']","[44.07680790001177, 44.67686119998689, 45.900833499996224, 46.76488830000744, 49.22894589998759, 49.508879500004696]",5,6,# # # # # #,None,44.07680790001177,44.67686119998689,45.900833499996224,46.76488830000744,49.22894589998759,49.508879500004696,3.163941100006923,0.6000532999751158,1.2239723000093363,0.8640548000112176,2.4640575999801513,0.27993360001710244
122,10,0.0,3,False,0.0,None,right,False,2,1,0,enc,0,0,0,[],[],5,6,1 3 1 4 1 1,6,0.0,0.0,0.0,0.0,0.0,0.0,0,0.0,0.0,0.0,0.0,0.0
123,11,4.4318030000140425,3,True,0.5,acc,right,True,2,1,3,ret,1,3,0,"['1', '1', '4', '3', '1', '3']","[56.32489759998862, 56.556851400004234, 56.85285570000997, 60.34087109999382, 60.54887040000176, 60.75670060000266]",5,6,# # # # # #,None,56.32489759998862,56.556851400004234,56.85285570000997,60.34087109999382,60.54887040000176,60.75670060000266,0.3160180999839213,0.23195380001561716,0.29600430000573397,3.4880153999838512,0.2079993000079412,0.2078302000008989
124,12,0.0,3,False,0.0,None,right,False,2,1,0,enc,0,0,0,[],[],5,6,3 3 4 4 1 1,6,0.0,0.0,0.0,0.0,0.0,0.0,0,0.0,0.0,0.0,0.0,0.0
125,13,3.648043499997584,3,True,0.5,acc,right,True,2,1,5,ret,1,5,0,"['1', '1', '4', '4', '3', '1']","[67.70086660000379, 68.02885699999752, 68.60477489998448, 70.82095709998976, 71.08483529998921, 71.34891010000138]",5,6,# # # # # #,None,67.70086660000379,68.02885699999752,68.60477489998448,70.82095709998976,71.08483529998921,71.34891010000138,0.4441660000011325,0.32799039999372326,0.5759178999869619,2.216182200005278,0.2638781999994535,0.26407480001216754
126,14,0.0,2,False,0.0,None,right,False,2,1,0,enc,0,0,0,[],[],5,6,1 4 1 2 4 4,4,0.0,0.0,0.0,0.0,0.0,0.0,0,0.0,0.0,0.0,0.0,0.0
127,15,2.735926800000016,2,True,0.5,acc,right,False,2,1,6,ret,1,10,0,"['4', '4', '2', '1', '4', '1']","[80.15698890000931, 80.45294300001115, 81.42090040000039, 81.77290959999664, 82.62106159998802, 82.89291570000933]",5,6,# # # # # #,None,80.15698890000931,80.45294300001115,81.42090040000039,81.77290959999664,82.62106159998802,82.89291570000933,2.3080788000079338,0.2959541000018362,0.9679573999892455,0.352009199996246,0.8481519999913871,0.27185410002130084
128,16,0.0,2,False,0.0,None,right,False,2,1,0,enc,0,0,1,[],[],5,6,1 2 2 1 4 2,4,0.0,0.0,0.0,0.0,0.0,0.0,0,0.0,0.0,0.0,0.0,0.0
129,17,2.576061399973696,2,True,0.5,acc,right,False,2,1,6,ret,1,10,1,"['1', '2', '2', '1', '4', '2']","[91.79681930001243, 92.35697799999616, 93.06095039998763, 93.45293669999228, 94.14085689999047, 94.37288069998613]",5,6,# # # # # #,None,91.79681930001243,92.35697799999616,93.06095039998763,93.45293669999228,94.14085689999047,94.37288069998613,2.4039036000031047,0.5601586999837309,0.7039723999914713,0.3919863000046462,0.6879201999981888,0.23202379999565892
130,18,0.0,3,False,0.0,None,right,False,2,1,0,enc,0,0,1,[],[],5,6,2 2 1 3 1 3,6,0.0,0.0,0.0,0.0,0.0,0.0,0,0.0,0.0,0.0,0.0,0.0
131,19,1.4001414000231307,3,True,0.5,acc,right,False,2,1,6,ret,1,10,1,"['2', '2', '1', '3', '1', '3']","[100.93273209998733, 101.11680230000638, 101.36483129998669, 101.90891599998577, 102.14088039999478, 102.33287350001046]",5,6,# # # # # #,None,100.93273209998733,101.11680230000638,101.36483129998669,101.90891599998577,102.14088039999478,102.33287350001046,0.05985140000120737,0.1840702000190504,0.24802899998030625,0.5440846999990754,0.2319644000090193,0.19199310001567937
132,20,0.0,2,False,0.0,None,right,False,2,1,0,enc,0,0,0,[],[],5,6,3 4 2 3 1 4,4,0.0,0.0,0.0,0.0,0.0,0.0,0,0.0,0.0,0.0,0.0,0.0
133,21,2.464425800018944,2,True,0.5,acc,right,True,2,1,5,ret,1,5,0,"['4', '1', '3', '2', '4', '1']","[110.62879719998455, 110.95684910001, 111.74086329998681, 112.05270999998902, 112.83686760001001, 113.09322300000349]",5,6,# # # # # #,None,110.62879719998455,110.95684910001,111.74086329998681,112.05270999998902,112.83686760001001,113.09322300000349,1.7959236999740824,0.32805190002545714,0.7840141999768093,0.3118467000022065,0.7841576000209898,0.2563553999934811
134,22,0.0,3,False,0.0,None,right,False,2,1,0,enc,0,0,0,[],[],5,6,2 3 3 3 4 2,6,0.0,0.0,0.0,0.0,0.0,0.0,0,0.0,0.0,0.0,0.0,0.0
135,23,5.927831500011963,3,True,0.5,acc,right,True,2,1,4,ret,1,4,0,"['2', '4', '3', '2', '3', '3']","[119.8049619999947, 120.0769425999897, 120.58891099999892, 124.11687349999556, 124.3808374000073, 125.73279350000666]",5,6,# # # # # #,None,119.8049619999947,120.0769425999897,120.58891099999892,124.11687349999556,124.3808374000073,125.73279350000666,0.21173899999121204,0.271980599995004,0.5119684000092093,3.5279624999966472,0.2639639000117313,1.35195609999937
136,0,0.0,2,False,0.0,None,right,False,2,1,0,enc,0,0,1,[],[],6,6,2 3 1 1 2 3,4,0.0,0.0,0.0,0.0,0.0,0.0,0,0.0,0.0,0.0,0.0,0.0
137,1,1.2560856000054628,2,True,0.5,acc,right,False,2,1,6,ret,1,10,1,"['2', '3', '1', '1', '2', '3']","[6.535185399989132, 6.727218499989249, 6.919222299999092, 7.495240999996895, 7.67924889997812, 7.791270999994595]",6,6,# # # # # #,None,6.535185399989132,6.727218499989249,6.919222299999092,7.495240999996895,7.67924889997812,7.791270999994595,NaN,0.19203310000011697,0.19200380000984296,0.5760186999978032,0.1840078999812249,0.11202210001647472
138,2,0.0,3,False,0.0,None,right,False,2,1,0,enc,0,0,1,[],[],6,6,2 3 3 4 2 2,6,0.0,0.0,0.0,0.0,0.0,0.0,0,0.0,0.0,0.0,0.0,0.0
139,3,1.3038710999826435,3,True,0.5,acc,right,False,2,1,6,ret,1,10,1,"['2', '3', '3', '4', '2', '2']","[14.479268600000069, 14.647168999974383, 14.847263299976476, 15.33506959999795, 15.599219999974594, 15.783139699982712]",6,6,# # # # # #,None,14.479268600000069,14.647168999974383,14.847263299976476,15.33506959999795,15.599219999974594,15.783139699982712,0.18799760000547394,0.1679003999743145,0.2000943000020925,0.4878063000214752,0.2641503999766428,0.18391970000811853
140,4,0.0,2,False,0.0,None,right,False,2,1,0,enc,0,0,0,[],[],6,6,3 1 2 4 4 4,4,0.0,0.0,0.0,0.0,0.0,0.0,0,0.0,0.0,0.0,0.0,0.0
141,5,3.5199843999871514,2,True,0.5,acc,right,True,2,1,3,ret,1,3,0,"['4', '4', '3', '2', '3', '1']","[24.751180499995826, 25.07923859998118, 25.975195999984862, 26.231176399975084, 28.127204599994002, 28.271164899982978]",6,6,# # # # # #,None,24.751180499995826,25.07923859998118,25.975195999984862,26.231176399975084,28.127204599994002,28.271164899982978,2.4680408000131138,0.3280580999853555,0.895957400003681,0.2559803999902215,1.8960282000189181,0.14396029998897575
142,6,0.0,3,False,0.0,None,right,False,2,1,0,enc,0,0,1,[],[],6,6,3 3 1 3 2 2,6,0.0,0.0,0.0,0.0,0.0,0.0,0,0.0,0.0,0.0,0.0,0.0
143,7,1.528112500003772,3,True,0.5,acc,right,True,2,1,5,ret,1,5,1,"['3', '3', '1', '1', '2', '2']","[34.74320159998024, 34.927072099992074, 35.27933629998006, 35.86317899997812, 36.09521919998224, 36.27131409998401]",6,6,# # # # # #,None,34.74320159998024,34.927072099992074,35.27933629998006,35.86317899997812,36.09521919998224,36.27131409998401,-0.027963300002738833,0.18387050001183525,0.3522641999879852,0.5838426999980584,0.2320402000041213,0.17609490000177175
144,8,0.0,2,False,0.0,None,right,False,2,1,0,enc,0,0,1,[],[],6,6,1 2 2 2 4 1,4,0.0,0.0,0.0,0.0,0.0,0.0,0,0.0,0.0,0.0,0.0,0.0
145,9,1.3520947999786586,2,True,0.5,acc,right,False,2,1,6,ret,1,10,1,"['1', '2', '2', '2', '4', '1']","[44.85517009999603, 45.15118249997613, 45.41527369999676, 45.65516729999217, 45.92715949998819, 46.20726489997469]",6,6,# # # # # #,None,44.85517009999603,45.15118249997613,45.41527369999676,45.65516729999217,45.92715949998819,46.20726489997469,2.0838560000120196,0.29601239998009987,0.2640912000206299,0.23989359999541193,0.27199219999602064,0.2801053999864962
146,10,0.0,3,False,0.0,None,right,False,2,1,0,enc,0,0,1,[],[],6,6,3 1 4 4 2 4,6,0.0,0.0,0.0,0.0,0.0,0.0,0,0.0,0.0,0.0,0.0,0.0
147,11,3.1360023000161164,3,True,0.5,acc,right,True,2,1,4,ret,1,4,1,"['3', '1', '4', '2', '3', '4']","[52.43118339998182, 52.82319239998469, 53.53518839998287, 54.591189500002656, 55.02311699997517, 55.567185699997935]",6,6,# # # # # #,None,52.43118339998182,52.82319239998469,53.53518839998287,54.591189500002656,55.02311699997517,55.567185699997935,-0.2760814999928698,0.3920090000028722,0.7119959999981802,1.0560011000197846,0.43192749997251667,0.5440687000227626
148,12,0.0,3,False,0.0,None,right,False,2,1,0,enc,0,0,0,[],[],6,6,3 4 1 3 4 2,6,0.0,0.0,0.0,0.0,0.0,0.0,0,0.0,0.0,0.0,0.0,0.0
149,13,2.4159173000080045,3,True,0.5,acc,right,True,2,1,2,ret,1,2,0,"['2', '4', '1', '3', '2', '4']","[62.88726349998615, 63.16730249999091, 63.72728729998926, 64.29508789998363, 64.99924389997614, 65.30318079999415]",6,6,# # # # # #,None,62.88726349998615,63.16730249999091,63.72728729998926,64.29508789998363,64.99924389997614,65.30318079999415,0.8200777999882121,0.2800390000047628,0.5599847999983467,0.5678005999943707,0.7041559999925084,0.3039369000180159
150,14,0.0,3,False,0.0,None,right,False,2,1,0,enc,0,0,0,[],[],6,6,1 2 1 3 1 1,6,0.0,0.0,0.0,0.0,0.0,0.0,0,0.0,0.0,0.0,0.0,0.0
151,15,2.5919877999986056,3,True,0.5,acc,right,False,2,1,6,ret,1,10,0,"['1', '1', '3', '1', '2', '1']","[72.26320970000234, 72.51915939999162, 72.83922029999667, 74.44730020000134, 74.6474149999849, 74.85519750000094]",6,6,# # # # # #,None,72.26320970000234,72.51915939999162,72.83922029999667,74.44730020000134,74.6474149999849,74.85519750000094,0.460028900008183,0.2559496999892872,0.3200609000050463,1.6080799000046682,0.20011479998356663,0.20778250001603737
152,16,0.0,2,False,0.0,None,right,False,2,1,0,enc,0,0,1,[],[],6,6,2 1 4 3 3 2,4,0.0,0.0,0.0,0.0,0.0,0.0,0,0.0,0.0,0.0,0.0,0.0
153,17,2.319920899986755,2,True,0.5,acc,right,False,2,1,6,ret,1,10,1,"['2', '1', '4', '3', '3', '2']","[83.70323429998825, 84.03117619999102, 84.74336559997755, 85.12726349997683, 85.73520159997861, 86.02315519997501]",6,6,# # # # # #,None,83.70323429998825,84.03117619999102,84.74336559997755,85.12726349997683,85.73520159997861,86.02315519997501,2.3480367999873124,0.3279419000027701,0.7121893999865279,0.38389789999928325,0.6079381000017747,0.28795359999639913
154,18,0.0,2,False,0.0,None,right,False,2,1,0,enc,0,0,0,[],[],6,6,1 4 4 1 2 3,4,0.0,0.0,0.0,0.0,0.0,0.0,0,0.0,0.0,0.0,0.0,0.0
155,19,4.6243315000028815,2,True,0.5,acc,right,True,2,1,3,ret,1,3,0,"['3', '2', '4', '4', '1', '4']","[94.86316529999021, 95.15117929998087, 96.46310679998714, 97.775276499975, 99.14316999999573, 99.4874967999931]",6,6,# # # # # #,None,94.86316529999021,95.15117929998087,96.46310679998714,97.775276499975,99.14316999999573,99.4874967999931,2.3400101000152063,0.28801399999065325,1.3119275000062771,1.3121696999878623,1.3678935000207275,0.3443267999973614
156,20,0.0,2,False,0.0,None,right,False,2,1,0,enc,0,0,0,[],[],6,6,2 1 2 3 4 4,4,0.0,0.0,0.0,0.0,0.0,0.0,0,0.0,0.0,0.0,0.0,0.0
157,21,2.199954900017474,2,True,0.5,acc,right,True,2,1,4,ret,1,4,0,"['4', '4', '3', '2', '2', '1']","[108.66320809998433, 108.99913599999854, 109.96721669999533, 110.20701789998566, 110.69511770000099, 110.8631630000018]",6,6,# # # # # #,None,108.66320809998433,108.99913599999854,109.96721669999533,110.20701789998566,110.69511770000099,110.8631630000018,2.675711299991235,0.33592790001421236,0.9680806999967899,0.23980119999032468,0.48809980001533404,0.16804530000081286
158,22,0.0,3,False,0.0,None,right,False,2,1,0,enc,0,0,0,[],[],6,6,3 1 3 4 2 3,6,0.0,0.0,0.0,0.0,0.0,0.0,0,0.0,0.0,0.0,0.0,0.0
159,23,2.872036099986872,3,True,0.5,acc,right,False,2,1,6,ret,1,10,0,"['3', '2', '4', '3', '1', '3']","[117.87120719999075, 118.20731359999627, 118.48727449998842, 120.13509139997768, 120.47124319997965, 120.74324329997762]",6,6,# # # # # #,None,117.87120719999075,118.20731359999627,118.48727449998842,120.13509139997768,120.47124319997965,120.74324329997762,0.5080441999889445,0.3361064000055194,0.27996089999214746,1.647816899989266,0.3361518000019714,0.2720000999979675
160,0,0.0,2,False,0.0,None,right,False,2,1,0,enc,0,0,1,[],[],7,6,2 4 4 2 1 3,4,0.0,0.0,0.0,0.0,0.0,0.0,0,0.0,0.0,0.0,0.0,0.0
161,1,1.9837507999909576,2,True,0.5,acc,right,False,2,1,6,ret,1,10,1,"['2', '4', '4', '2', '1', '3']","[6.61599049999495, 6.9998984999838285, 7.271793299994897, 8.199863499990897, 8.46402620000299, 8.599741299985908]",7,6,# # # # # #,None,6.61599049999495,6.9998984999838285,7.271793299994897,8.199863499990897,8.46402620000299,8.599741299985908,NaN,0.38390799998887815,0.2718948000110686,0.9280701999960002,0.2641627000120934,0.1357150999829173
162,2,0.0,3,False,0.0,None,right,False,2,1,0,enc,0,0,1,[],[],7,6,2 4 3 1 4 4,6,0.0,0.0,0.0,0.0,0.0,0.0,0,0.0,0.0,0.0,0.0,0.0
163,3,1.6958867000066675,3,True,0.5,acc,right,False,2,1,6,ret,1,10,1,"['2', '4', '3', '1', '4', '4']","[14.823906699981308, 15.143752899981337, 15.343785600009141, 16.143777799996315, 16.36795690000872, 16.519793399987975]",7,6,# # # # # #,None,14.823906699981308,15.143752899981337,15.343785600009141,16.143777799996315,16.36795690000872,16.519793399987975,-0.27583460000460036,0.31984620000002906,0.20003270002780482,0.7999921999871731,0.2241791000124067,0.15183649997925386
164,4,0.0,3,False,0.0,None,right,False,2,1,0,enc,0,0,1,[],[],7,6,3 3 4 4 4 1,6,0.0,0.0,0.0,0.0,0.0,0.0,0,0.0,0.0,0.0,0.0,0.0
