,Tn,MT,chunk,display_trial_feedback,feedback_dur,feedback_type,hand,is_error,item_dur,iti_dur,number_correct,phase,phase_type,points,recall_dir,response,response_time,run_number,seq_length,seq_str,trial_dur,P1,P2,P3,P4,P5,P6,IPI_0,IPI_1,IPI_2,IPI_3,IPI_4,IPI_5
0,0,0.0,3,False,0.0,None,right,False,2,1,0,enc,0,0,1,[],[],1,6,2 2 2 4 4 3,6,0.0,0.0,0.0,0.0,0.0,0.0,0,0.0,0.0,0.0,0.0,0.0
1,1,2.79210979999698,3,True,0.5,acc,right,True,2,1,3,ret,1,3,1,"['2', '2', '2', '3', '3', '4']","[15.396192000000156, 15.73229739999806, 16.140526399998635, 17.556479399998352, 17.81214859999818, 18.188301799997134]",1,6,# # # # # #,None,15.396192000000156,15.73229739999806,16.140526399998635,17.556479399998352,17.81214859999818,18.188301799997134,8.896192000000156,0.3361053999979049,0.40822900000057416,1.4159529999997176,0.2556691999998293,0.3761531999989529
2,2,0.0,3,False,0.0,None,right,False,2,1,0,enc,0,0,1,[],[],1,6,1 3 1 3 1 2,6,0.0,0.0,0.0,0.0,0.0,0.0,0,0.0,0.0,0.0,0.0,0.0
3,3,4.415810300000884,3,True,0.5,acc,right,True,2,1,2,ret,1,2,1,"['1', '2', '1', '1', '2', '3']","[26.692272099997354, 26.94031669999822, 27.228272199998173, 30.55622349999976, 30.804333099997166, 31.10808239999824]",1,6,# # # # # #,None,26.692272099997354,26.94031669999822,27.228272199998173,30.55622349999976,30.804333099997166,31.10808239999824,2.003970300000219,0.24804460000086692,0.28795549999995274,3.327951300001587,0.2481095999974059,0.3037493000010727
4,4,0.0,3,False,0.0,None,right,False,2,1,0,enc,0,0,0,[],[],1,6,4 1 4 3 4 3,6,0.0,0.0,0.0,0.0,0.0,0.0,0,0.0,0.0,0.0,0.0,0.0
5,5,12.56004960000064,3,True,0.5,acc,right,True,2,1,1,ret,1,1,0,"['4', '1', '4', '3', '1', '3']","[41.56422089999978, 42.03609659999711, 44.58820999999807, 53.67620539999916, 53.9402399999999, 54.12427050000042]",1,6,# # # # # #,None,41.56422089999978,42.03609659999711,44.58820999999807,53.67620539999916,53.9402399999999,54.12427050000042,3.9561385000015434,0.4718756999973266,2.5521134000009624,9.087995400001091,0.2640346000007412,0.18403050000051735
6,6,0.0,2,False,0.0,None,right,False,2,1,0,enc,0,0,1,[],[],1,6,4 3 4 1 4 4,4,0.0,0.0,0.0,0.0,0.0,0.0,0,0.0,0.0,0.0,0.0,0.0
7,7,2.81608789999882,2,True,0.5,acc,right,False,2,1,6,ret,1,10,1,"['4', '3', '4', '1', '4', '4']","[64.16417419999925, 64.59625089999827, 65.6681682999988, 66.22829439999987, 66.66828220000025, 66.98026209999807]",1,6,# # # # # #,None,64.16417419999925,64.59625089999827,65.6681682999988,66.22829439999987,66.66828220000025,66.98026209999807,3.539903699998831,0.43207669999901555,1.0719174000005296,0.5601261000010709,0.43998780000038096,0.31197989999782294
8,8,0.0,2,False,0.0,None,right,False,2,1,0,enc,0,0,0,[],[],1,6,4 1 3 3 1 4,4,0.0,0.0,0.0,0.0,0.0,0.0,0,0.0,0.0,0.0,0.0,0.0
9,9,10.128241700000215,2,True,0.5,acc,right,True,2,1,2,ret,1,2,0,"['1', '4', '3', '3', '4', '1']","[76.27616209999906, 77.33239239999966, 84.7239754000002, 84.9721318999982, 86.08525799999916, 86.40440379999927]",1,6,# # # # # #,None,76.27616209999906,77.33239239999966,84.7239754000002,84.9721318999982,86.08525799999916,86.40440379999927,2.7959000000009837,1.0562303000006068,7.391583000000537,0.2481564999980037,1.1131261000009545,0.31914580000011483
10,10,0.0,2,False,0.0,None,right,False,2,1,0,enc,0,0,0,[],[],1,6,1 3 4 2 2 2,4,0.0,0.0,0.0,0.0,0.0,0.0,0,0.0,0.0,0.0,0.0,0.0
11,11,5.119893499999307,2,True,0.5,acc,right,True,2,1,3,ret,1,3,0,"['2', '2', '4', '4', '2', '2']","[97.29222579999987, 97.60399849999885, 100.26013969999985, 100.98009559999991, 102.20413349999944, 102.41211929999918]",1,6,# # # # # #,None,97.29222579999987,97.60399849999885,100.26013969999985,100.98009559999991,102.20413349999944,102.41211929999918,4.387822000000597,0.3117726999989827,2.6561412000010023,0.719955900000059,1.22403789999953,0.207985799999733
12,12,0.0,3,False,0.0,None,right,False,2,1,0,enc,0,0,0,[],[],1,6,4 1 1 1 4 3,6,0.0,0.0,0.0,0.0,0.0,0.0,0,0.0,0.0,0.0,0.0,0.0
13,13,6.1200906000012765,3,True,0.5,acc,right,True,2,1,4,ret,1,4,0,"['3', '4', '1', '1', '4', '3']","[110.58006059999752, 110.86007729999983, 111.2280976999973, 113.30811979999999, 116.26085339999918, 116.7001511999988]",1,6,# # # # # #,None,110.58006059999752,110.86007729999983,111.2280976999973,113.30811979999999,116.26085339999918,116.7001511999988,1.667941299998347,0.2800167000023066,0.3680203999974765,2.0800221000026795,2.952733599999192,0.43929779999962193
14,14,0.0,2,False,0.0,None,right,False,2,1,0,enc,0,0,1,[],[],1,6,1 2 3 4 3 1,4,0.0,0.0,0.0,0.0,0.0,0.0,0,0.0,0.0,0.0,0.0,0.0
15,15,1.8639235000009649,2,True,0.5,acc,right,False,2,1,6,ret,1,10,1,"['1', '2', '3', '4', '3', '1']","[125.44416289999936, 125.62815559999945, 126.37213849999898, 126.57207939999716, 126.7881856999993, 127.30808640000032]",1,6,# # # # # #,None,125.44416289999936,125.62815559999945,126.37213849999898,126.57207939999716,126.7881856999993,127.30808640000032,2.2440117000005557,0.18399270000008983,0.743982899999537,0.19994089999818243,0.2161063000021386,0.519900700001017
16,0,0.0,3,False,0.0,None,right,False,2,1,0,enc,0,0,1,[],[],1,6,4 2 2 1 1 2,6,0.0,0.0,0.0,0.0,0.0,0.0,0,0.0,0.0,0.0,0.0,0.0
17,1,0.9361783999993348,3,True,0.5,acc,right,False,2,1,6,ret,1,10,1,"['4', '2', '2', '1', '1', '2']","[5.252408700001979, 5.548519400002988, 5.67645260000063, 5.924703000000591, 6.036476500001299, 6.188587100001314]",1,6,# # # # # #,None,5.252408700001979,5.548519400002988,5.67645260000063,5.924703000000591,6.036476500001299,6.188587100001314,NaN,0.2961107000010088,0.12793319999764208,0.2482503999999608,0.11177350000070874,0.15211060000001453
18,2,0.0,3,False,0.0,None,right,False,2,1,0,enc,0,0,1,[],[],1,6,3 3 2 2 3 3,6,0.0,0.0,0.0,0.0,0.0,0.0,0,0.0,0.0,0.0,0.0,0.0
19,3,1.1040045000008831,3,True,0.5,acc,right,False,2,1,6,ret,1,10,1,"['3', '3', '2', '2', '3', '3']","[12.9404022000017, 13.060400900001696, 13.24444250000306, 13.756453400001192, 13.908423100001528, 14.044406700002583]",1,6,# # # # # #,None,12.9404022000017,13.060400900001696,13.24444250000306,13.756453400001192,13.908423100001528,14.044406700002583,0.25181510000038543,0.11999869999999646,0.1840416000013647,0.5120108999981312,0.15196970000033616,0.13598360000105458
20,4,0.0,2,False,0.0,None,right,False,2,1,0,enc,0,0,0,[],[],1,6,1 4 4 2 2 1,4,0.0,0.0,0.0,0.0,0.0,0.0,0,0.0,0.0,0.0,0.0,0.0
21,5,3.543804199998704,2,True,0.5,acc,right,False,2,1,6,ret,1,10,0,"['1', '2', '2', '4', '4', '1']","[23.412657300003048, 23.605122600001778, 24.804433600002085, 24.980456299999787, 26.73239509999985, 26.95646150000175]",1,6,# # # # # #,None,23.412657300003048,23.605122600001778,24.804433600002085,24.980456299999787,26.73239509999985,26.95646150000175,2.868250600000465,0.1924652999987302,1.199311000000307,0.17602269999770215,1.7519388000000617,0.22406640000190237
22,6,0.0,3,False,0.0,None,right,False,2,1,0,enc,0,0,0,[],[],1,6,2 3 3 2 4 1,6,0.0,0.0,0.0,0.0,0.0,0.0,0,0.0,0.0,0.0,0.0,0.0
23,7,2.3284019000020635,3,True,0.5,acc,right,True,2,1,4,ret,1,4,0,"['2', '4', '1', '3', '3', '2']","[37.54038600000058, 37.692455500000506, 38.07638710000174, 39.55640090000088, 39.684314000001905, 39.868787900002644]",1,6,# # # # # #,None,37.54038600000058,37.692455500000506,38.07638710000174,39.55640090000088,39.684314000001905,39.868787900002644,4.08392449999883,0.15206949999992503,0.38393160000123316,1.480013799999142,0.12791310000102385,0.18447390000073938
24,8,0.0,2,False,0.0,None,right,False,2,1,0,enc,0,0,0,[],[],1,6,4 3 2 1 3 4,4,0.0,0.0,0.0,0.0,0.0,0.0,0,0.0,0.0,0.0,0.0,0.0
25,9,6.807969499997853,2,True,0.5,acc,right,True,2,1,5,ret,1,5,0,"['4', '3', '1', '2', '3', '2']","[50.020370100002765, 50.340417700001126, 52.180293500001426, 52.436279900000955, 56.644336600002134, 56.82833960000062]",1,6,# # # # # #,None,50.020370100002765,50.340417700001126,52.180293500001426,52.436279900000955,56.644336600002134,56.82833960000062,3.651582200000121,0.32004759999836097,1.8398758000003,0.25598639999952866,4.20805670000118,0.18400299999848357
26,10,0.0,2,False,0.0,None,right,False,2,1,0,enc,0,0,1,[],[],1,6,4 3 3 1 1 2,4,0.0,0.0,0.0,0.0,0.0,0.0,0,0.0,0.0,0.0,0.0,0.0
27,11,1.2798365999988164,2,True,0.5,acc,right,False,2,1,6,ret,1,10,1,"['4', '3', '3', '1', '1', '2']","[65.5805031000018, 65.78032890000031, 65.9802294000001, 66.49235380000027, 66.66832520000025, 66.86033970000062]",1,6,# # # # # #,None,65.5805031000018,65.78032890000031,65.9802294000001,66.49235380000027,66.66832520000025,66.86033970000062,2.2521635000011884,0.19982579999850714,0.1999004999997851,0.5121244000001752,0.17597139999998035,0.19201450000036857
28,12,0.0,3,False,0.0,None,right,False,2,1,0,enc,0,0,0,[],[],1,6,2 3 4 2 2 1,6,0.0,0.0,0.0,0.0,0.0,0.0,0,0.0,0.0,0.0,0.0,0.0
29,13,3.7441710000020976,3,True,0.5,acc,right,False,2,1,6,ret,1,10,0,"['1', '2', '2', '4', '3', '2']","[74.15626870000051, 74.46831370000291, 74.6043196999999, 77.50831790000302, 77.68431120000241, 77.90043970000261]",1,6,# # # # # #,None,74.15626870000051,74.46831370000291,74.6043196999999,77.50831790000302,77.68431120000241,77.90043970000261,0.7959289999998873,0.3120450000023993,0.13600599999699625,2.903998200003116,0.17599329999939073,0.21612850000019534
30,14,0.0,2,False,0.0,None,right,False,2,1,0,enc,0,0,1,[],[],1,6,4 2 3 4 2 1,4,0.0,0.0,0.0,0.0,0.0,0.0,0,0.0,0.0,0.0,0.0,0.0
31,15,1.4957329999997455,2,True,0.5,acc,right,False,2,1,6,ret,1,10,1,"['4', '2', '3', '4', '2', '1']","[87.18058400000155, 87.42827540000144, 87.6441842000022, 88.10112510000181, 88.48425320000024, 88.67631700000129]",1,6,# # # # # #,None,87.18058400000155,87.42827540000144,87.6441842000022,88.10112510000181,88.48425320000024,88.67631700000129,2.7801442999989376,0.2476913999998942,0.2159088000007614,0.4569408999996085,0.3831280999984301,0.19206380000105128
32,16,0.0,2,False,0.0,None,right,False,2,1,0,enc,0,0,1,[],[],1,6,1 4 1 3 2 4,4,0.0,0.0,0.0,0.0,0.0,0.0,0,0.0,0.0,0.0,0.0,0.0
33,17,2.095890200002032,2,True,0.5,acc,right,False,2,1,6,ret,1,10,1,"['1', '4', '1', '3', '2', '4']","[97.3243192000009, 98.10828070000207, 98.4363513999997, 98.70044179999968, 99.0522942000025, 99.42020940000293]",1,6,# # # # # #,None,97.3243192000009,98.10828070000207,98.4363513999997,98.70044179999968,99.0522942000025,99.42020940000293,2.1480021999996097,0.783961500001169,0.3280706999976246,0.2640903999999864,0.35185240000282647,0.3679152000004251
34,18,0.0,3,False,0.0,None,right,False,2,1,0,enc,0,0,0,[],[],1,6,2 3 3 3 3 4,6,0.0,0.0,0.0,0.0,0.0,0.0,0,0.0,0.0,0.0,0.0,0.0
35,19,1.7679979999993518,3,True,0.5,acc,right,True,2,1,5,ret,1,5,0,"['4', '3', '3', '3', '2', '2']","[106.13227870000264, 106.34019470000203, 106.48427520000041, 107.37225300000136, 107.77243120000276, 107.900276700002]",1,6,# # # # # #,None,106.13227870000264,106.34019470000203,106.48427520000041,107.37225300000136,107.77243120000276,107.900276700002,0.2120692999997118,0.20791599999938626,0.14408049999838113,0.8879778000009537,0.4001782000013918,0.1278454999992391
36,20,0.0,3,False,0.0,None,right,False,2,1,0,enc,0,0,1,[],[],1,6,1 1 3 2 2 4,6,0.0,0.0,0.0,0.0,0.0,0.0,0,0.0,0.0,0.0,0.0,0.0
37,21,0.935957399997278,3,True,0.5,acc,right,False,2,1,6,ret,1,10,1,"['1', '1', '3', '2', '2', '4']","[114.27627920000305, 114.40433720000146, 114.66023390000191, 114.90829510000185, 115.02822060000108, 115.21223660000032]",1,6,# # # # # #,None,114.27627920000305,114.40433720000146,114.66023390000191,114.90829510000185,115.02822060000108,115.21223660000032,-0.12399749999894993,0.12805799999841838,0.2558967000004486,0.24806119999993825,0.1199254999992263,0.18401599999924656
38,22,0.0,2,False,0.0,None,right,False,2,1,0,enc,0,0,0,[],[],1,6,4 1 1 1 4 4,4,0.0,0.0,0.0,0.0,0.0,0.0,0,0.0,0.0,0.0,0.0,0.0
39,23,3.8080143000006497,2,True,0.5,acc,right,True,2,1,3,ret,1,3,0,"['4', '4', '1', '4', '4', '1']","[124.02024259999962, 124.19623160000265, 125.02032300000064, 125.45224900000176, 127.62820720000309, 127.82825690000027]",1,6,# # # # # #,None,124.02024259999962,124.19623160000265,125.02032300000064,125.45224900000176,127.62820720000309,127.82825690000027,2.3080059999992955,0.1759890000030282,0.8240913999979966,0.4319260000011127,2.1759582000013324,0.20004969999718014
40,0,0.0,3,False,0.0,None,right,False,2,1,0,enc,0,0,1,[],[],2,6,3 2 2 3 2 3,6,0.0,0.0,0.0,0.0,0.0,0.0,0,0.0,0.0,0.0,0.0,0.0
41,1,0.9116527000005592,3,True,0.5,acc,right,False,2,1,6,ret,1,10,1,"['3', '2', '2', '3', '2', '3']","[4.510605899999064, 4.6942179999969085, 4.846416699998372, 5.150370399998792, 5.318385099999432, 5.422258599999623]",2,6,# # # # # #,None,4.510605899999064,4.6942179999969085,4.846416699998372,5.150370399998792,5.318385099999432,5.422258599999623,NaN,0.18361209999784478,0.1521987000014633,0.3039537000004202,0.16801470000064,0.10387350000019069
42,2,0.0,2,False,0.0,None,right,False,2,1,0,enc,0,0,1,[],[],2,6,2 4 4 4 4 1,4,0.0,0.0,0.0,0.0,0.0,0.0,0,0.0,0.0,0.0,0.0,0.0
43,3,2.088024500000756,2,True,0.5,acc,right,True,2,1,5,ret,1,5,1,"['2', '4', '4', '4', '2', '1']","[14.014179499998136, 14.262537200000224, 14.96626809999725, 15.134248999998817, 15.942345299998124, 16.102203999998892]",2,6,# # # # # #,None,14.014179499998136,14.262537200000224,14.96626809999725,15.134248999998817,15.942345299998124,16.102203999998892,2.091920899998513,0.24835770000208868,0.7037308999970264,0.16798090000156662,0.8080962999993062,0.1598587000007683
44,4,0.0,3,False,0.0,None,right,False,2,1,0,enc,0,0,1,[],[],2,6,1 4 1 4 4 3,6,0.0,0.0,0.0,0.0,0.0,0.0,0,0.0,0.0,0.0,0.0,0.0
45,5,1.4238856000010855,3,True,0.5,acc,right,False,2,1,6,ret,1,10,1,"['1', '4', '1', '4', '4', '3']","[23.070235799998045, 23.56605419999687, 23.854156599998532, 24.150775299996894, 24.310248999998294, 24.49412139999913]",2,6,# # # # # #,None,23.070235799998045,23.56605419999687,23.854156599998532,24.150775299996894,24.310248999998294,24.49412139999913,0.468031799999153,0.49581839999882504,0.2881024000016623,0.296618699998362,0.15947370000139927,0.18387240000083693
46,6,0.0,3,False,0.0,None,right,False,2,1,0,enc,0,0,0,[],[],2,6,1 3 1 3 1 3,6,0.0,0.0,0.0,0.0,0.0,0.0,0,0.0,0.0,0.0,0.0,0.0
47,7,3.5840787999986787,3,True,0.5,acc,right,True,2,1,5,ret,1,5,0,"['3', '1', '3', '1', '4', '1']","[32.41423719999875, 32.6141269999971, 32.79220639999767, 35.15106309999828, 35.55024639999829, 35.99831599999743]",2,6,# # # # # #,None,32.41423719999875,32.6141269999971,32.79220639999767,35.15106309999828,35.55024639999829,35.99831599999743,1.4201157999996212,0.19988979999834555,0.17807940000056988,2.358856700000615,0.39918330000000424,0.448069599999144
48,8,0.0,2,False,0.0,None,right,False,2,1,0,enc,0,0,0,[],[],2,6,2 1 4 4 4 2,4,0.0,0.0,0.0,0.0,0.0,0.0,0,0.0,0.0,0.0,0.0,0.0
49,9,3.4959052000012885,2,True,0.5,acc,right,False,2,1,6,ret,1,10,0,"['2', '4', '4', '4', '1', '2']","[45.310111199996754, 45.45416610000029, 47.04641819999961, 47.18227489999845, 48.750164699999004, 48.80601639999804]",2,6,# # # # # #,None,45.310111199996754,45.45416610000029,47.04641819999961,47.18227489999845,48.750164699999004,48.80601639999804,2.811795199999324,0.14405490000353893,1.592252099999314,0.13585669999883976,1.5678898000005574,0.05585169999903883
50,10,0.0,3,False,0.0,None,right,False,2,1,0,enc,0,0,0,[],[],2,6,3 3 4 1 2 3,6,0.0,0.0,0.0,0.0,0.0,0.0,0,0.0,0.0,0.0,0.0,0.0
51,11,3.200071000002936,3,True,0.5,acc,right,False,2,1,6,ret,1,10,0,"['3', '2', '1', '4', '3', '3']","[56.62210669999695, 56.77408730000025, 56.9980708999974, 59.48632809999981, 59.70235059999686, 59.822177699999884]",2,6,# # # # # #,None,56.62210669999695,56.77408730000025,56.9980708999974,59.48632809999981,59.70235059999686,59.822177699999884,1.3160902999989048,0.1519806000032986,0.22398359999715467,2.4882572000024084,0.21602249999705236,0.11982710000302177
52,12,0.0,2,False,0.0,None,right,False,2,1,0,enc,0,0,0,[],[],2,6,4 2 2 2 3 1,4,0.0,0.0,0.0,0.0,0.0,0.0,0,0.0,0.0,0.0,0.0,0.0
53,13,3.695718200000556,2,True,0.5,acc,right,True,2,1,5,ret,1,5,0,"['1', '3', '2', '2', '2', '2']","[68.9983304999987, 69.15824579999753, 69.58226719999948, 69.701954199998, 72.59127539999827, 72.69404869999926]",2,6,# # # # # #,None,68.9983304999987,69.15824579999753,69.58226719999948,69.701954199998,72.59127539999827,72.69404869999926,2.6761527999988175,0.15991529999882914,0.42402140000194777,0.11968699999852106,2.8893212000002677,0.10277330000099028
54,14,0.0,3,False,0.0,None,right,False,2,1,0,enc,0,0,1,[],[],2,6,3 2 2 1 1 4,6,0.0,0.0,0.0,0.0,0.0,0.0,0,0.0,0.0,0.0,0.0,0.0
55,15,1.3116555999986304,3,True,0.5,acc,right,False,2,1,6,ret,1,10,1,"['3', '2', '2', '1', '1', '4']","[78.82243119999839, 78.99016759999722, 79.1263063999977, 79.34228489999805, 79.46216349999668, 80.13408679999702]",2,6,# # # # # #,None,78.82243119999839,78.99016759999722,79.1263063999977,79.34228489999805,79.46216349999668,80.13408679999702,-0.37161750000086613,0.16773639999883017,0.13613880000048084,0.21597850000034668,0.11987859999862849,0.6719233000003442
56,16,0.0,2,False,0.0,None,right,False,2,1,0,enc,0,0,0,[],[],2,6,4 3 2 1 2 2,4,0.0,0.0,0.0,0.0,0.0,0.0,0,0.0,0.0,0.0,0.0,0.0
57,17,2.6496565000015835,2,True,0.5,acc,right,False,2,1,6,ret,1,10,0,"['2', '2', '1', '2', '3', '4']","[88.87802929999816, 89.01419089999763, 90.00605879999785, 90.15015130000029, 91.36663779999799, 91.52768579999974]",2,6,# # # # # #,None,88.87802929999816,89.01419089999763,90.00605879999785,90.15015130000029,91.36663779999799,91.52768579999974,2.2439425000011397,0.1361615999994683,0.9918679000002157,0.14409250000244356,1.2164864999976999,0.161048000001756
58,18,0.0,2,False,0.0,None,right,False,2,1,0,enc,0,0,1,[],[],2,6,3 1 4 4 2 3,4,0.0,0.0,0.0,0.0,0.0,0.0,0,0.0,0.0,0.0,0.0,0.0
59,19,1.2399138000000676,2,True,0.5,acc,right,False,2,1,6,ret,1,10,1,"['3', '1', '4', '4', '2', '3']","[100.45421839999835, 100.67818019999686, 101.14201689999754, 101.26207679999789, 101.49408689999836, 101.69413219999842]",2,6,# # # # # #,None,100.45421839999835,100.67818019999686,101.14201689999754,101.26207679999789,101.49408689999836,101.69413219999842,2.426532599998609,0.22396179999850574,0.4638367000006838,0.12005990000034217,0.23201010000047972,0.20004530000005616
60,20,0.0,3,False,0.0,None,right,False,2,1,0,enc,0,0,0,[],[],2,6,1 1 4 4 3 2,6,0.0,0.0,0.0,0.0,0.0,0.0,0,0.0,0.0,0.0,0.0,0.0
61,21,3.0880173000005016,3,True,0.5,acc,right,False,2,1,6,ret,1,10,0,"['2', '3', '4', '4', '1', '1']","[110.07008279999718, 110.22208049999972, 110.37422099999822, 112.6141742999971, 113.03863269999783, 113.15810009999768]",2,6,# # # # # #,None,110.07008279999718,110.22208049999972,110.37422099999822,112.6141742999971,113.03863269999783,113.15810009999768,1.8759505999987596,0.1519977000025392,0.15214049999849522,2.239953299998888,0.42445840000073076,0.11946739999984857
62,22,0.0,2,False,0.0,None,right,False,2,1,0,enc,0,0,1,[],[],2,6,4 2 1 2 4 1,4,0.0,0.0,0.0,0.0,0.0,0.0,0,0.0,0.0,0.0,0.0,0.0
63,23,1.343842999998742,2,True,0.5,acc,right,False,2,1,6,ret,1,10,1,"['4', '2', '1', '2', '4', '1']","[121.83830669999952, 122.0621261999986, 122.31798439999693, 122.50228539999807, 122.9822417999967, 123.18214969999826]",2,6,# # # # # #,None,121.83830669999952,122.0621261999986,122.31798439999693,122.50228539999807,122.9822417999967,123.18214969999826,2.1802066000018385,0.22381949999908102,0.25585819999832893,0.1843010000011418,0.4799563999986276,0.19990790000156267
64,0,0.0,2,False,0.0,None,right,False,2,1,0,enc,0,0,1,[],[],3,6,1 3 3 1 2 3,4,0.0,0.0,0.0,0.0,0.0,0.0,0,0.0,0.0,0.0,0.0,0.0
65,1,1.3198722999986785,2,True,0.5,acc,right,False,2,1,6,ret,1,10,1,"['1', '3', '3', '1', '2', '3']","[6.729967899998883, 6.8581440999987535, 7.29801519999819, 7.457920299999387, 7.921915399998397, 8.049840199997561]",3,6,# # # # # #,None,6.729967899998883,6.8581440999987535,7.29801519999819,7.457920299999387,7.921915399998397,8.049840199997561,NaN,0.12817619999987073,0.4398710999994364,0.15990510000119684,0.46399509999901056,0.12792479999916395
66,2,0.0,3,False,0.0,None,right,False,2,1,0,enc,0,0,0,[],[],3,6,2 3 1 2 2 1,6,0.0,0.0,0.0,0.0,0.0,0.0,0,0.0,0.0,0.0,0.0,0.0
67,3,1.4160128999974404,3,True,0.5,acc,right,True,2,1,3,ret,1,3,0,"['1', '2', '2', '3', '2', '1']","[14.985887599999842, 15.22601179999765, 15.347745799997938, 15.657966399998259, 16.290099300000293, 16.401900499997282]",3,6,# # # # # #,None,14.985887599999842,15.22601179999765,15.347745799997938,15.657966399998259,16.290099300000293,16.401900499997282,0.4360474000022805,0.24012419999780832,0.12173400000028778,0.3102206000003207,0.6321329000020341,0.11180119999698945
68,4,0.0,3,False,0.0,None,right,False,2,1,0,enc,0,0,1,[],[],3,6,4 1 3 2 2 1,6,0.0,0.0,0.0,0.0,0.0,0.0,0,0.0,0.0,0.0,0.0,0.0
69,5,1.4306474000004528,3,True,0.5,acc,right,False,2,1,6,ret,1,10,1,"['4', '1', '3', '2', '2', '1']","[22.379260699999577, 22.602560600000288, 23.177928899996914, 23.51391849999709, 23.649986299999, 23.80990810000003]",3,6,# # # # # #,None,22.379260699999577,22.602560600000288,23.177928899996914,23.51391849999709,23.649986299999,23.80990810000003,-0.5226397999977053,0.2232999000007112,0.5753682999966259,0.3359896000001754,0.13606780000191065,0.15992180000102962
70,6,0.0,2,False,0.0,None,right,False,2,1,0,enc,0,0,0,[],[],3,6,3 4 4 3 4 1,4,0.0,0.0,0.0,0.0,0.0,0.0,0,0.0,0.0,0.0,0.0,0.0
71,7,5.592048699996667,2,True,0.5,acc,right,True,2,1,1,ret,1,1,0,"['4', '1', '4', '3', '4', '1']","[33.11390380000012, 33.41801249999844, 36.51388899999802, 36.68987609999749, 38.52989709999747, 38.70595249999678]",3,6,# # # # # #,None,33.11390380000012,33.41801249999844,36.51388899999802,36.68987609999749,38.52989709999747,38.70595249999678,2.803995700000087,0.3041086999983236,3.0958764999995765,0.1759870999994746,1.8400209999999788,0.17605539999931352
72,8,0.0,3,False,0.0,None,right,False,2,1,0,enc,0,0,1,[],[],3,6,1 2 2 4 4 3,6,0.0,0.0,0.0,0.0,0.0,0.0,0,0.0,0.0,0.0,0.0,0.0
73,9,1.5124723000008091,3,True,0.5,acc,right,True,2,1,5,ret,1,5,1,"['1', '2', '2', '4', '3', '3']","[44.786059599999135, 45.009782399996766, 45.15384199999971, 45.89049299999897, 46.185986099997535, 46.298531899999944]",3,6,# # # # # #,None,44.786059599999135,45.009782399996766,45.15384199999971,45.89049299999897,46.185986099997535,46.298531899999944,-0.4198928999976488,0.22372279999763123,0.14405960000294726,0.7366509999992559,0.2954930999985663,0.11254580000240821
74,10,0.0,2,False,0.0,None,right,False,2,1,0,enc,0,0,0,[],[],3,6,4 4 3 2 3 3,4,0.0,0.0,0.0,0.0,0.0,0.0,0,0.0,0.0,0.0,0.0,0.0
75,11,3.4240877999982327,2,True,0.5,acc,right,True,2,1,4,ret,1,4,0,"['3', '3', '2', '4', '3', '4']","[55.25012799999968, 55.38583409999774, 56.091024800000014, 56.32984469999792, 58.489874099999724, 58.67421579999791]",3,6,# # # # # #,None,55.25012799999968,55.38583409999774,56.091024800000014,56.32984469999792,58.489874099999724,58.67421579999791,2.4515960999997333,0.13570609999806038,0.7051907000022766,0.23881989999790676,2.160029400001804,0.1843416999981855
76,12,0.0,3,False,0.0,None,right,False,2,1,0,enc,0,0,0,[],[],3,6,2 4 3 2 2 4,6,0.0,0.0,0.0,0.0,0.0,0.0,0,0.0,0.0,0.0,0.0,0.0
77,13,3.055944300002011,3,True,0.5,acc,right,False,2,1,6,ret,1,10,0,"['4', '2', '2', '3', '4', '2']","[66.04191969999738, 66.29812429999947, 66.44205719999809, 68.6819125999973, 68.8739499000003, 69.09786399999939]",3,6,# # # # # #,None,66.04191969999738,66.29812429999947,66.44205719999809,68.6819125999973,68.8739499000003,69.09786399999939,0.8677038999994693,0.2562046000020928,0.14393289999861736,2.2398553999992146,0.19203730000299402,0.2239140999990923
78,14,0.0,2,False,0.0,None,right,False,2,1,0,enc,0,0,0,[],[],3,6,2 3 4 4 1 2,4,0.0,0.0,0.0,0.0,0.0,0.0,0,0.0,0.0,0.0,0.0,0.0
79,15,2.800045800002408,2,True,0.5,acc,right,False,2,1,6,ret,1,10,0,"['2', '1', '4', '4', '3', '2']","[79.41783789999681, 79.57836979999774, 81.16189159999703, 81.32200819999707, 82.04982169999857, 82.21788369999922]",3,6,# # # # # #,None,79.41783789999681,79.57836979999774,81.16189159999703,81.32200819999707,82.04982169999857,82.21788369999922,3.8199738999974215,0.1605319000009331,1.5835217999992892,0.16011660000003758,0.7278135000015027,0.16806200000064564
80,16,0.0,3,False,0.0,None,right,False,2,1,0,enc,0,0,1,[],[],3,6,2 1 1 2 4 1,6,0.0,0.0,0.0,0.0,0.0,0.0,0,0.0,0.0,0.0,0.0,0.0
81,17,1.1118798999996216,3,True,0.5,acc,right,False,2,1,6,ret,1,10,1,"['2', '1', '1', '2', '4', '1']","[88.41792649999843, 88.58593919999839, 88.6978089999975, 88.84978669999691, 89.35432729999957, 89.52980639999805]",3,6,# # # # # #,None,88.41792649999843,88.58593919999839,88.6978089999975,88.84978669999691,89.35432729999957,89.52980639999805,-0.2999572000007902,0.16801269999996293,0.11186979999911273,0.15197769999940647,0.504540600002656,0.17547909999848343
82,18,0.0,3,False,0.0,None,right,False,2,1,0,enc,0,0,0,[],[],3,6,3 2 1 1 3 2,6,0.0,0.0,0.0,0.0,0.0,0.0,0,0.0,0.0,0.0,0.0,0.0
83,19,6.400417100001504,3,True,0.5,acc,right,True,2,1,4,ret,1,4,0,"['1', '3', '2', '1', '2', '3']","[96.37004319999687, 99.10578779999923, 99.34581179999805, 102.50576209999781, 102.6338528999986, 102.77046029999838]",3,6,# # # # # #,None,96.37004319999687,99.10578779999923,99.34581179999805,102.50576209999781,102.6338528999986,102.77046029999838,0.34023679999882006,2.735744600002363,0.24002399999881163,3.159950299999764,0.1280908000007912,0.13660739999977523
84,20,0.0,2,False,0.0,None,right,False,2,1,0,enc,0,0,1,[],[],3,6,1 4 1 4 2 1,4,0.0,0.0,0.0,0.0,0.0,0.0,0,0.0,0.0,0.0,0.0,0.0
85,21,2.0006399000012607,2,True,0.5,acc,right,False,2,1,6,ret,1,10,1,"['1', '4', '1', '4', '2', '1']","[111.22575279999728, 111.8978274000001, 112.20980059999783, 112.66585519999717, 113.02603569999701, 113.22639269999854]",3,6,# # # # # #,None,111.22575279999728,111.8978274000001,112.20980059999783,112.66585519999717,113.02603569999701,113.22639269999854,1.9552924999989045,0.6720746000028157,0.31197319999773754,0.45605459999933373,0.36018049999984214,0.20035700000153156
86,22,0.0,2,False,0.0,None,right,False,2,1,0,enc,0,0,1,[],[],3,6,1 3 2 1 1 3,4,0.0,0.0,0.0,0.0,0.0,0.0,0,0.0,0.0,0.0,0.0,0.0
87,23,1.4000907000008738,2,True,0.5,acc,right,False,2,1,6,ret,1,10,1,"['1', '3', '2', '1', '1', '3']","[121.49776039999779, 121.96976379999978, 122.18788069999937, 122.34587839999949, 122.55378989999735, 122.89785109999866]",3,6,# # # # # #,None,121.49776039999779,121.96976379999978,122.18788069999937,122.34587839999949,122.55378989999735,122.89785109999866,1.7713676999992458,0.47200340000199503,0.21811689999958617,0.1579977000001236,0.20791149999786285,0.34406120000130613
88,0,0.0,2,False,0.0,None,right,False,2,1,0,enc,0,0,1,[],[],4,6,4 4 1 3 2 2,4,0.0,0.0,0.0,0.0,0.0,0.0,0,0.0,0.0,0.0,0.0,0.0
89,1,1.3359886999969603,2,True,0.5,acc,right,False,2,1,6,ret,1,10,1,"['4', '4', '1', '3', '2', '2']","[6.562537000001612, 6.698537399999623, 7.202474099998653, 7.5785361000016565, 7.778618200001802, 7.898525699998572]",4,6,# # # # # #,None,6.562537000001612,6.698537399999623,7.202474099998653,7.5785361000016565,7.778618200001802,7.898525699998572,NaN,0.13600039999801083,0.5039366999990307,0.37606200000300305,0.20008210000014515,0.11990749999677064
90,2,0.0,2,False,0.0,None,right,False,2,1,0,enc,0,0,0,[],[],4,6,3 2 1 3 4 3,4,0.0,0.0,0.0,0.0,0.0,0.0,0,0.0,0.0,0.0,0.0,0.0
91,3,5.359970299999986,2,True,0.5,acc,right,True,2,1,4,ret,1,4,0,"['3', '4', '2', '1', '4', '3']","[17.290484600001946, 17.450836700001673, 20.762619100001757, 20.922458500001085, 22.499159599999984, 22.650454900001932]",4,6,# # # # # #,None,17.290484600001946,17.450836700001673,20.762619100001757,20.922458500001085,22.499159599999984,22.650454900001932,2.891958900003374,0.16035209999972722,3.3117824000000837,0.15983939999932772,1.5767010999988997,0.1512953000019479
92,4,0.0,3,False,0.0,None,right,False,2,1,0,enc,0,0,0,[],[],4,6,2 3 2 3 1 2,6,0.0,0.0,0.0,0.0,0.0,0.0,0,0.0,0.0,0.0,0.0,0.0
93,5,4.320041300001321,3,True,0.5,acc,right,True,2,1,4,ret,1,4,0,"['1', '2', '3', '2', '3', '2']","[30.17846279999867, 30.314482599998883, 30.53847830000086, 34.22641790000125, 34.37854359999983, 34.49850409999999]",4,6,# # # # # #,None,30.17846279999867,30.314482599998883,30.53847830000086,34.22641790000125,34.37854359999983,34.49850409999999,1.0280078999967373,0.13601980000021285,0.22399570000197855,3.687939600000391,0.15212569999857806,0.11996050000016112
94,6,0.0,3,False,0.0,None,right,False,2,1,0,enc,0,0,1,[],[],4,6,4 4 4 2 2 1,6,0.0,0.0,0.0,0.0,0.0,0.0,0,0.0,0.0,0.0,0.0,0.0
95,7,1.0237519000002069,3,True,0.5,acc,right,False,2,1,6,ret,1,10,1,"['4', '4', '4', '2', '2', '1']","[40.64277700000093, 40.77870690000054, 40.89060990000144, 41.44242740000118, 41.54654479999954, 41.66652890000114]",4,6,# # # # # #,None,40.64277700000093,40.77870690000054,40.89060990000144,41.44242740000118,41.54654479999954,41.66652890000114,-0.3557270999990578,0.13592989999960992,0.11190300000089337,0.5518174999997427,0.10411739999835845,0.1199841000016022
96,8,0.0,2,False,0.0,None,right,False,2,1,0,enc,0,0,1,[],[],4,6,3 1 4 3 4 1,4,0.0,0.0,0.0,0.0,0.0,0.0,0,0.0,0.0,0.0,0.0,0.0
97,9,1.1437469999982568,2,True,0.5,acc,right,False,2,1,6,ret,1,10,1,"['3', '1', '4', '3', '4', '1']","[50.202403200000845, 50.41055369999958, 50.76235390000147, 50.96345990000191, 51.13833230000091, 51.3461501999991]",4,6,# # # # # #,None,50.202403200000845,50.41055369999958,50.76235390000147,50.96345990000191,51.13833230000091,51.3461501999991,2.035874299999705,0.20815049999873736,0.3518002000018896,0.20110600000043632,0.1748723999990034,0.20781789999819011
98,10,0.0,3,False,0.0,None,right,False,2,1,0,enc,0,0,1,[],[],4,6,3 1 4 2 4 3,6,0.0,0.0,0.0,0.0,0.0,0.0,0,0.0,0.0,0.0,0.0,0.0
99,11,1.5520305999998527,3,True,0.5,acc,right,False,2,1,6,ret,1,10,1,"['3', '1', '4', '2', '4', '3']","[57.690284500000416, 57.85831320000216, 58.40229689999978, 58.65038750000167, 59.01029430000199, 59.24231510000027]",4,6,# # # # # #,None,57.690284500000416,57.85831320000216,58.40229689999978,58.65038750000167,59.01029430000199,59.24231510000027,-0.15586569999868516,0.16802870000174153,0.5439836999976251,0.24809060000188765,0.35990680000031716,0.2320207999982813
100,12,0.0,2,False,0.0,None,right,False,2,1,0,enc,0,0,0,[],[],4,6,2 1 4 1 4 4,4,0.0,0.0,0.0,0.0,0.0,0.0,0,0.0,0.0,0.0,0.0,0.0
101,13,4.119926100000157,2,True,0.5,acc,right,False,2,1,6,ret,1,10,0,"['4', '4', '1', '4', '1', '2']","[68.16228050000063, 68.28232320000097, 70.82626460000029, 70.95424300000013, 72.16217400000096, 72.28220660000079]",4,6,# # # # # #,None,68.16228050000063,68.28232320000097,70.82626460000029,70.95424300000013,72.16217400000096,72.28220660000079,2.4199654000003648,0.12004270000034012,2.543941399999312,0.12797839999984717,1.2079310000008263,0.12003259999983129
102,14,0.0,3,False,0.0,None,right,False,2,1,0,enc,0,0,0,[],[],4,6,4 4 4 2 2 3,6,0.0,0.0,0.0,0.0,0.0,0.0,0,0.0,0.0,0.0,0.0,0.0
103,15,2.9760711999988416,3,True,0.5,acc,right,True,2,1,5,ret,1,5,0,"['3', '2', '2', '1', '4', '4']","[80.19427050000013, 80.37825130000056, 80.50616269999955, 82.15435879999859, 83.04231540000183, 83.17034169999897]",4,6,# # # # # #,None,80.19427050000013,80.37825130000056,80.50616269999955,82.15435879999859,83.04231540000183,83.17034169999897,1.412063899999339,0.18398080000042683,0.12791139999899315,1.6481960999990406,0.8879566000032355,0.12802629999714554
104,16,0.0,2,False,0.0,None,right,False,2,1,0,enc,0,0,1,[],[],4,6,4 2 3 2 4 3,4,0.0,0.0,0.0,0.0,0.0,0.0,0,0.0,0.0,0.0,0.0,0.0
105,17,1.4078011999990852,2,True,0.5,acc,right,False,2,1,6,ret,1,10,1,"['4', '2', '3', '2', '4', '3']","[91.82641050000166, 92.01827670000057, 92.34622519999903, 92.74623739999879, 93.01825420000023, 93.23421170000074]",4,6,# # # # # #,None,91.82641050000166,92.01827670000057,92.34622519999903,92.74623739999879,93.01825420000023,93.23421170000074,2.1560688000026857,0.19186619999891263,0.3279484999984561,0.40001219999976456,0.27201680000143824,0.2159575000005134
106,18,0.0,2,False,0.0,None,right,False,2,1,0,enc,0,0,0,[],[],4,6,4 4 2 3 3 4,4,0.0,0.0,0.0,0.0,0.0,0.0,0,0.0,0.0,0.0,0.0,0.0
107,19,3.351937600000383,2,True,0.5,acc,right,True,2,1,4,ret,1,4,0,"['4', '3', '2', '2', '1', '4']","[102.81030860000101, 103.00233859999935, 104.26623520000066, 104.46620880000046, 106.04222030000165, 106.16224620000139]",4,6,# # # # # #,None,102.81030860000101,103.00233859999935,104.26623520000066,104.46620880000046,106.04222030000165,106.16224620000139,3.076096900000266,0.19202999999833992,1.263896600001317,0.1999735999997938,1.5760115000011865,0.12002589999974589
108,20,0.0,3,False,0.0,None,right,False,2,1,0,enc,0,0,1,[],[],4,6,3 3 3 1 1 2,6,0.0,0.0,0.0,0.0,0.0,0.0,0,0.0,0.0,0.0,0.0,0.0
109,21,0.7519897999991372,3,True,0.5,acc,right,True,2,1,5,ret,1,5,1,"['3', '3', '3', '1', '1', '3']","[112.3941976999995, 112.51429270000153, 112.64216680000027, 112.76219440000204, 112.90620680000211, 113.14618749999863]",4,6,# # # # # #,None,112.3941976999995,112.51429270000153,112.64216680000027,112.76219440000204,112.90620680000211,113.14618749999863,-0.2680485000018962,0.12009500000203843,0.1278740999987349,0.12002760000177659,0.1440124000000651,0.23998069999652216
110,22,0.0,3,False,0.0,None,right,False,2,1,0,enc,0,0,0,[],[],4,6,1 4 3 2 2 1,6,0.0,0.0,0.0,0.0,0.0,0.0,0,0.0,0.0,0.0,0.0,0.0
111,23,3.2721313999973063,3,True,0.5,acc,right,True,2,1,5,ret,1,5,0,"['1', '2', '2', '3', '4', '4']","[121.47411700000157, 121.8021719999997, 121.9623356000011, 124.37817780000114, 124.60226189999958, 124.74624839999888]",4,6,# # # # # #,None,121.47411700000157,121.8021719999997,121.9623356000011,124.37817780000114,124.60226189999958,124.74624839999888,1.8279295000029379,0.32805499999813037,0.16016360000139684,2.415842200000043,0.2240840999984357,0.14398649999930058
112,0,0.0,3,False,0.0,None,right,False,2,1,0,enc,0,0,1,[],[],5,6,4 3 1 1 1 1,6,0.0,0.0,0.0,0.0,0.0,0.0,0,0.0,0.0,0.0,0.0,0.0
113,1,1.1998884999993606,3,True,0.5,acc,right,False,2,1,6,ret,1,10,1,"['4', '3', '1', '1', '1', '1']","[4.592980500001431, 4.817053599999781, 5.072872100001405, 5.312913500001741, 5.464945200001239, 5.792869000000792]",5,6,# # # # # #,None,4.592980500001431,4.817053599999781,5.072872100001405,5.312913500001741,5.464945200001239,5.792869000000792,NaN,0.2240730999983498,0.25581850000162376,0.24004140000033658,0.1520316999994975,0.327923799999553
114,2,0.0,3,False,0.0,None,right,False,2,1,0,enc,0,0,1,[],[],5,6,2 4 2 3 2 4,6,0.0,0.0,0.0,0.0,0.0,0.0,0,0.0,0.0,0.0,0.0,0.0
115,3,1.6961214000002656,3,True,0.5,acc,right,False,2,1,6,ret,1,10,1,"['2', '4', '2', '3', '2', '4']","[12.008712300001207, 12.168852300001163, 12.504856400002609, 13.296850300001097, 13.465377800002898, 13.704833700001473]",5,6,# # # # # #,None,12.008712300001207,12.168852300001163,12.504856400002609,13.296850300001097,13.465377800002898,13.704833700001473,-0.2841566999995848,0.16013999999995576,0.3360041000014462,0.7919938999984879,0.16852750000180095,0.23945589999857475
116,4,0.0,2,False,0.0,None,right,False,2,1,0,enc,0,0,1,[],[],5,6,4 3 3 2 2 2,4,0.0,0.0,0.0,0.0,0.0,0.0,0,0.0,0.0,0.0,0.0,0.0
117,5,1.5600634000002174,2,True,0.5,acc,right,False,2,1,6,ret,1,10,1,"['4', '3', '3', '2', '2', '2']","[21.904838200000086, 22.17685429999983, 22.488806500001374, 22.99281460000202, 23.32077019999997, 23.464901600000303]",5,6,# # # # # #,None,21.904838200000086,22.17685429999983,22.488806500001374,22.99281460000202,23.32077019999997,23.464901600000303,1.700004499998613,0.2720160999997461,0.3119522000015422,0.5040081000006467,0.3279555999979493,0.1441314000003331
118,6,0.0,2,False,0.0,None,right,False,2,1,0,enc,0,0,1,[],[],5,6,2 3 1 3 2 3,4,0.0,0.0,0.0,0.0,0.0,0.0,0,0.0,0.0,0.0,0.0,0.0
119,7,0.9439200999986496,2,True,0.5,acc,right,False,2,1,6,ret,1,10,1,"['2', '3', '1', '3', '2', '3']","[31.888896100001148, 32.04077360000156, 32.24115200000233, 32.520751899999595, 32.696888800001034, 32.8328161999998]",5,6,# # # # # #,None,31.888896100001148,32.04077360000156,32.24115200000233,32.520751899999595,32.696888800001034,32.8328161999998,1.9239945000008447,0.15187750000040978,0.20037840000077267,0.2795998999972653,0.17613690000143833,0.13592739999876358
120,8,0.0,2,False,0.0,None,right,False,2,1,0,enc,0,0,0,[],[],5,6,3 2 3 1 3 4,4,0.0,0.0,0.0,0.0,0.0,0.0,0,0.0,0.0,0.0,0.0,0.0
121,9,2.8000366999986,2,True,0.5,acc,right,False,2,1,6,ret,1,10,0,"['4', '3', '1', '3', '2', '3']","[42.088981000000786, 42.264800500001, 43.792808300000615, 43.976682900000014, 44.76877500000046, 44.889017699999386]",5,6,# # # # # #,None,42.088981000000786,42.264800500001,43.792808300000615,43.976682900000014,44.76877500000046,44.889017699999386,2.756164800000988,0.17581950000021607,1.5280077999996138,0.18387459999939892,0.7920921000004455,0.12024269999892567
122,10,0.0,3,False,0.0,None,right,False,2,1,0,enc,0,0,0,[],[],5,6,1 3 1 4 1 1,6,0.0,0.0,0.0,0.0,0.0,0.0,0,0.0,0.0,0.0,0.0,0.0
123,11,3.75201890000244,3,True,0.5,acc,right,True,2,1,4,ret,1,4,0,"['1', '1', '4', '3', '2', '1']","[53.11283120000007, 53.24882939999952, 53.45676910000111, 56.512777600000845, 56.672813100001804, 56.86485010000251]",5,6,# # # # # #,None,53.11283120000007,53.24882939999952,53.45676910000111,56.512777600000845,56.672813100001804,56.86485010000251,1.7238135000006878,0.13599819999944884,0.2079397000015888,3.0560084999997343,0.16003550000095856,0.19203700000070967
124,12,0.0,3,False,0.0,None,right,False,2,1,0,enc,0,0,0,[],[],5,6,3 3 4 4 1 1,6,0.0,0.0,0.0,0.0,0.0,0.0,0,0.0,0.0,0.0,0.0,0.0
125,13,2.8880473999997776,3,True,0.5,acc,right,False,2,1,6,ret,1,10,0,"['1', '1', '4', '4', '3', '3']","[64.20869810000295, 64.34478920000038, 64.56082880000031, 66.75267610000083, 66.97658520000186, 67.09674550000273]",5,6,# # # # # #,None,64.20869810000295,64.34478920000038,64.56082880000031,66.75267610000083,66.97658520000186,67.09674550000273,0.8438480000004347,0.1360910999974294,0.21603959999993094,2.191847300000518,0.2239091000010376,0.12016030000086175
126,14,0.0,2,False,0.0,None,right,False,2,1,0,enc,0,0,0,[],[],5,6,1 4 1 2 4 4,4,0.0,0.0,0.0,0.0,0.0,0.0,0,0.0,0.0,0.0,0.0,0.0
127,15,2.688016299998708,2,True,0.5,acc,right,False,2,1,6,ret,1,10,0,"['4', '4', '2', '1', '4', '1']","[76.11280570000235, 76.21685890000299, 76.8486948000027, 77.0005525000015, 78.62481870000192, 78.80082200000106]",5,6,# # # # # #,None,76.11280570000235,76.21685890000299,76.8486948000027,77.0005525000015,78.62481870000192,78.80082200000106,2.516060199999629,0.10405320000063512,0.6318358999997145,0.15185769999879994,1.6242662000004202,0.1760032999991381
128,16,0.0,2,False,0.0,None,right,False,2,1,0,enc,0,0,1,[],[],5,6,1 2 2 1 4 2,4,0.0,0.0,0.0,0.0,0.0,0.0,0,0.0,0.0,0.0,0.0,0.0
129,17,1.344432699999743,2,True,0.5,acc,right,False,2,1,6,ret,1,10,1,"['1', '2', '2', '1', '4', '2']","[87.28873139999996, 87.45668579999983, 87.6727009999995, 87.88874310000028, 88.41679320000185, 88.6331640999997]",5,6,# # # # # #,None,87.28873139999996,87.45668579999983,87.6727009999995,87.88874310000028,88.41679320000185,88.6331640999997,1.9879093999988982,0.16795439999987138,0.21601519999967422,0.21604210000077728,0.5280501000015647,0.2163708999978553
130,18,0.0,3,False,0.0,None,right,False,2,1,0,enc,0,0,1,[],[],5,6,2 2 1 3 1 3,6,0.0,0.0,0.0,0.0,0.0,0.0,0,0.0,0.0,0.0,0.0,0.0
131,19,1.271324999997887,3,True,0.5,acc,right,False,2,1,6,ret,1,10,1,"['2', '2', '1', '3', '1', '3']","[94.68936980000217, 94.8087489999998, 94.95278809999945, 95.5687104000026, 95.80096390000108, 95.96069480000006]",5,6,# # # # # #,None,94.68936980000217,94.8087489999998,94.95278809999945,95.5687104000026,95.80096390000108,95.96069480000006,-0.44379429999753484,0.11937919999763835,0.14403909999964526,0.6159223000031488,0.23225349999847822,0.15973089999897638
132,20,0.0,2,False,0.0,None,right,False,2,1,0,enc,0,0,0,[],[],5,6,3 4 2 3 1 4,4,0.0,0.0,0.0,0.0,0.0,0.0,0,0.0,0.0,0.0,0.0,0.0
133,21,2.6160165000001143,2,True,0.5,acc,right,True,2,1,5,ret,1,5,0,"['4', '1', '3', '2', '1', '3']","[106.5046696999998, 106.78497340000104, 107.6566829000003, 107.92073280000113, 108.92875980000099, 109.12068619999991]",5,6,# # # # # #,None,106.5046696999998,106.78497340000104,107.6566829000003,107.92073280000113,108.92875980000099,109.12068619999991,4.043974899999739,0.28030370000124094,0.8717094999992696,0.2640499000008276,1.0080269999998563,0.1919263999989198
134,22,0.0,3,False,0.0,None,right,False,2,1,0,enc,0,0,0,[],[],5,6,2 3 3 3 4 2,6,0.0,0.0,0.0,0.0,0.0,0.0,0,0.0,0.0,0.0,0.0,0.0
135,23,4.088054199997714,3,True,0.5,acc,right,True,2,1,5,ret,1,5,0,"['2', '4', '3', '3', '2', '2']","[118.18467580000288, 119.56871110000066, 119.92895010000211, 121.8167534000022, 122.08065030000216, 122.27273000000059]",5,6,# # # # # #,None,118.18467580000288,119.56871110000066,119.92895010000211,121.8167534000022,122.08065030000216,122.27273000000059,2.5639896000029694,1.3840352999977767,0.3602390000014566,1.887803300000087,0.26389689999996335,0.19207969999843044
136,0,0.0,2,False,0.0,None,right,False,2,1,0,enc,0,0,1,[],[],6,6,2 3 1 1 2 3,4,0.0,0.0,0.0,0.0,0.0,0.0,0,0.0,0.0,0.0,0.0,0.0
137,1,0.7839856000027794,2,True,0.5,acc,right,False,2,1,6,ret,1,10,1,"['2', '3', '1', '1', '2', '3']","[6.468210799997905, 6.588485399999627, 6.8201609999996435, 6.980167699999583, 7.14811969999937, 7.252196400000685]",6,6,# # # # # #,None,6.468210799997905,6.588485399999627,6.8201609999996435,6.980167699999583,7.14811969999937,7.252196400000685,NaN,0.12027460000172141,0.23167560000001686,0.16000669999993988,0.1679519999997865,0.10407670000131475
138,2,0.0,3,False,0.0,None,right,False,2,1,0,enc,0,0,1,[],[],6,6,2 3 3 4 2 2,6,0.0,0.0,0.0,0.0,0.0,0.0,0,0.0,0.0,0.0,0.0,0.0
139,3,1.456129000001965,3,True,0.5,acc,right,False,2,1,6,ret,1,10,1,"['2', '3', '3', '4', '2', '2']","[13.452168299998448, 13.620144799999252, 13.7481286000002, 14.524246099997981, 14.796280899998237, 14.908297300000413]",6,6,# # # # # #,None,13.452168299998448,13.620144799999252,13.7481286000002,14.524246099997981,14.796280899998237,14.908297300000413,-0.3000281000022369,0.16797650000080466,0.12798380000094767,0.7761174999977811,0.2720348000002559,0.11201640000217594
140,4,0.0,2,False,0.0,None,right,False,2,1,0,enc,0,0,0,[],[],6,6,3 1 2 4 4 4,4,0.0,0.0,0.0,0.0,0.0,0.0,0,0.0,0.0,0.0,0.0,0.0
141,5,3.5999563999976085,2,True,0.5,acc,right,False,2,1,6,ret,1,10,0,"['4', '4', '4', '2', '1', '3']","[23.732156300000497, 23.86021880000044, 25.868291799997678, 26.0761851999996, 27.180029600000125, 27.332112699998106]",6,6,# # # # # #,None,23.732156300000497,23.86021880000044,25.868291799997678,26.0761851999996,27.180029600000125,27.332112699998106,2.323859000000084,0.1280624999999418,2.008072999997239,0.2078934000019217,1.1038444000005256,0.15208309999798075
142,6,0.0,3,False,0.0,None,right,False,2,1,0,enc,0,0,1,[],[],6,6,3 3 1 3 2 2,6,0.0,0.0,0.0,0.0,0.0,0.0,0,0.0,0.0,0.0,0.0,0.0
143,7,0.7999996999969881,3,True,0.5,acc,right,False,2,1,6,ret,1,10,1,"['3', '3', '1', '3', '2', '2']","[33.36413320000065, 33.50017590000061, 33.668029299999034, 33.860069999998814, 34.036130599997705, 34.16413289999764]",6,6,# # # # # #,None,33.36413320000065,33.50017590000061,33.668029299999034,33.860069999998814,34.036130599997705,34.16413289999764,-0.4679794999974547,0.13604269999996177,0.16785339999842108,0.19204069999977946,0.17606059999889112,0.12800229999993462
144,8,0.0,2,False,0.0,None,right,False,2,1,0,enc,0,0,1,[],[],6,6,1 2 2 2 4 1,4,0.0,0.0,0.0,0.0,0.0,0.0,0,0.0,0.0,0.0,0.0,0.0
145,9,1.4239173000023584,2,True,0.5,acc,right,False,2,1,6,ret,1,10,1,"['1', '2', '2', '2', '4', '1']","[42.25215589999789, 42.38013829999909, 42.62003349999941, 42.74823489999835, 43.4361914000001, 43.676073200000246]",6,6,# # # # # #,None,42.25215589999789,42.38013829999909,42.62003349999941,42.74823489999835,43.4361914000001,43.676073200000246,1.5880230000002484,0.1279824000012013,0.23989520000031916,0.1282013999989431,0.6879565000017465,0.23988180000014836
146,10,0.0,3,False,0.0,None,right,False,2,1,0,enc,0,0,1,[],[],6,6,3 1 4 4 2 4,6,0.0,0.0,0.0,0.0,0.0,0.0,0,0.0,0.0,0.0,0.0,0.0
147,11,2.791876300001604,3,True,0.5,acc,right,False,2,1,6,ret,1,10,1,"['3', '1', '4', '4', '2', '4']","[49.81208999999944, 49.996140499999456, 50.996208199998364, 51.420203099998616, 52.31595079999897, 52.60396630000105]",6,6,# # # # # #,None,49.81208999999944,49.996140499999456,50.996208199998364,51.420203099998616,52.31595079999897,52.60396630000105,-0.36398320000080275,0.1840505000000121,1.0000676999989082,0.42399490000025253,0.8957477000003564,0.288015500002075
148,12,0.0,3,False,0.0,None,right,False,2,1,0,enc,0,0,0,[],[],6,6,3 4 1 3 4 2,6,0.0,0.0,0.0,0.0,0.0,0.0,0,0.0,0.0,0.0,0.0,0.0
149,13,4.632017100000667,3,True,0.5,acc,right,True,2,1,3,ret,1,3,0,"['2', '3', '4', '1', '2', '3']","[61.97200309999971, 62.180067000001145, 62.411976200000936, 66.14004179999756, 66.45995670000048, 66.60402020000038]",6,6,# # # # # #,None,61.97200309999971,62.180067000001145,62.411976200000936,66.14004179999756,66.45995670000048,66.60402020000038,2.868036799998663,0.20806390000143438,0.23190919999979087,3.7280655999966257,0.3199149000029138,0.14406349999990198
150,14,0.0,3,False,0.0,None,right,False,2,1,0,enc,0,0,0,[],[],6,6,1 2 1 3 1 1,6,0.0,0.0,0.0,0.0,0.0,0.0,0,0.0,0.0,0.0,0.0,0.0
151,15,2.199919200000295,3,True,0.5,acc,right,False,2,1,6,ret,1,10,0,"['1', '1', '3', '1', '2', '1']","[74.54811029999837, 74.70011090000116, 75.03609539999889, 76.44407130000036, 76.62801279999985, 76.74802949999867]",6,6,# # # # # #,None,74.54811029999837,74.70011090000116,75.03609539999889,76.44407130000036,76.62801279999985,76.74802949999867,1.444090099997993,0.15200060000279336,0.3359844999977213,1.4079759000014747,0.1839414999994915,0.12001669999881415
152,16,0.0,2,False,0.0,None,right,False,2,1,0,enc,0,0,1,[],[],6,6,2 1 4 3 3 2,4,0.0,0.0,0.0,0.0,0.0,0.0,0,0.0,0.0,0.0,0.0,0.0
153,17,1.5998514000020805,2,True,0.5,acc,right,False,2,1,6,ret,1,10,1,"['2', '1', '4', '3', '3', '2']","[84.76404909999837, 84.97220359999847, 85.72397170000113, 85.97203309999895, 86.18001019999792, 86.36390050000045]",6,6,# # # # # #,None,84.76404909999837,84.97220359999847,85.72397170000113,85.97203309999895,86.18001019999792,86.36390050000045,1.5160195999997086,0.2081545000000915,0.7517681000026641,0.24806139999782317,0.20797709999897052,0.18389030000253115
154,18,0.0,2,False,0.0,None,right,False,2,1,0,enc,0,0,0,[],[],6,6,1 4 4 1 2 3,4,0.0,0.0,0.0,0.0,0.0,0.0,0,0.0,0.0,0.0,0.0,0.0
155,19,6.887936600000103,2,True,0.5,acc,right,True,2,1,5,ret,1,5,0,"['3', '2', '1', '4', '2', '1']","[95.30005619999793, 95.48403039999903, 97.78813040000023, 98.1960345999978, 102.08399839999765, 102.18799279999803]",6,6,# # # # # #,None,95.30005619999793,95.48403039999903,97.78813040000023,98.1960345999978,102.08399839999765,102.18799279999803,2.436155699997471,0.18397420000110287,2.304100000001199,0.4079041999975743,3.887963799999852,0.1039944000003743
156,20,0.0,2,False,0.0,None,right,False,2,1,0,enc,0,0,0,[],[],6,6,2 1 2 3 4 4,4,0.0,0.0,0.0,0.0,0.0,0.0,0,0.0,0.0,0.0,0.0,0.0
157,21,1.3677218000011635,2,True,0.5,acc,right,False,2,1,6,ret,1,10,0,"['4', '4', '3', '2', '1', '2']","[111.17232599999988, 111.29211199999918, 111.62004049999814, 111.78808990000107, 112.3880551000002, 112.54004780000105]",6,6,# # # # # #,None,111.17232599999988,111.29211199999918,111.62004049999814,111.78808990000107,112.3880551000002,112.54004780000105,2.4843332000018563,0.11978599999929429,0.32792849999896134,0.16804940000292845,0.5999651999991329,0.15199270000084653
158,22,0.0,3,False,0.0,None,right,False,2,1,0,enc,0,0,0,[],[],6,6,3 1 3 4 2 3,6,0.0,0.0,0.0,0.0,0.0,0.0,0,0.0,0.0,0.0,0.0,0.0
159,23,3.799515900002007,3,True,0.5,acc,right,True,2,1,5,ret,1,5,0,"['3', '2', '4', '2', '1', '3']","[121.78049679999822, 122.04394909999974, 122.73995939999804, 125.13184829999955, 125.33999069999845, 125.58001270000022]",6,6,# # # # # #,None,121.78049679999822,122.04394909999974,122.73995939999804,125.13184829999955,125.33999069999845,125.58001270000022,2.74044899999717,0.26345230000151787,0.6960102999983064,2.3918889000015042,0.2081423999989056,0.24002200000177254
160,0,0.0,2,False,0.0,None,right,False,2,1,0,enc,0,0,1,[],[],7,6,2 4 4 2 1 3,4,0.0,0.0,0.0,0.0,0.0,0.0,0,0.0,0.0,0.0,0.0,0.0
161,1,2.01616759999888,2,True,0.5,acc,right,False,2,1,6,ret,1,10,1,"['2', '4', '4', '2', '1', '3']","[6.457202199999301, 6.6331358999996155, 7.457206699997187, 7.945185199998377, 8.225218799998402, 8.473369799998181]",7,6,# # # # # #,None,6.457202199999301,6.6331358999996155,7.457206699997187,7.945185199998377,8.225218799998402,8.473369799998181,NaN,0.17593370000031427,0.8240707999975712,0.4879785000011907,0.2800336000000243,0.24815099999977974
162,2,0.0,3,False,0.0,None,right,False,2,1,0,enc,0,0,1,[],[],7,6,2 4 3 1 4 4,6,0.0,0.0,0.0,0.0,0.0,0.0,0,0.0,0.0,0.0,0.0,0.0
163,3,1.6720568999990064,3,True,0.5,acc,right,False,2,1,6,ret,1,10,1,"['2', '4', '3', '1', '4', '4']","[14.497116899998218, 14.665381499999057, 15.24927359999856, 15.561137900000176, 16.04110749999745, 16.169173799997225]",7,6,# # # # # #,None,14.497116899998218,14.665381499999057,15.24927359999856,15.561137900000176,16.04110749999745,16.169173799997225,-0.4762528999999631,0.16826460000083898,0.5838920999995025,0.31186430000161636,0.4799695999972755,0.12806629999977304
164,4,0.0,3,False,0.0,None,right,False,2,1,0,enc,0,0,1,[],[],7,6,3 3 4 4 4 1,6,0.0,0.0,0.0,0.0,0.0,0.0,0,0.0,0.0,0.0,0.0,0.0
165,5,2.647740499996871,3,True,0.5,acc,right,True,2,1,5,ret,1,5,1,"['3', '3', '4', '3', '4', '1']","[22.20943400000033, 22.32904299999791, 22.4812165000003, 22.497208999997383, 24.64119489999939, 24.8571744999972]",7,6,# # # # # #,None,22.20943400000033,22.32904299999791,22.4812165000003,22.497208999997383,24.64119489999939,24.8571744999972,-0.4597397999968962,0.11960899999758112,0.15217350000239094,0.015992499997082632,2.143985900002008,0.2159795999978087
166,6,0.0,2,False,0.0,None,right,False,2,1,0,enc,0,0,1,[],[],7,6,4 1 2 3 3 2,4,0.0,0.0,0.0,0.0,0.0,0.0,0,0.0,0.0,0.0,0.0,0.0
167,7,1.7120171999995364,2,True,0.5,acc,right,False,2,1,6,ret,1,10,1,"['4', '1', '2', '3', '3', '2']","[32.94517189999897, 33.22520499999882, 33.84907799999928, 34.04906479999772, 34.489060599997174, 34.657189099998504]",7,6,# # # # # #,None,32.94517189999897,33.22520499999882,33.84907799999928,34.04906479999772,34.489060599997174,34.657189099998504,1.5879974000017683,0.28003309999985504,0.623873000000458,0.1999867999984417,0.43999579999945126,0.1681285000013304
168,8,0.0,3,False,0.0,None,right,False,2,1,0,enc,0,0,0,[],[],7,6,3 4 2 1 2 2,6,0.0,0.0,0.0,0.0,0.0,0.0,0,0.0,0.0,0.0,0.0,0.0
169,9,3.3040303000016134,3,True,0.5,acc,right,False,2,1,6,ret,1,10,0,"['2', '2', '1', '2', '4', '3']","[41.24910589999854, 41.361124899998686, 41.513097399998514, 44.121318299999984, 44.36921599999914, 44.553136200000154]",7,6,# # # # # #,None,41.24910589999854,41.361124899998686,41.513097399998514,44.121318299999984,44.36921599999914,44.553136200000154,0.09191680000003544,0.11201900000014575,0.15197249999982887,2.60822090000147,0.24789769999915734,0.18392020000101184
170,10,0.0,2,False,0.0,None,right,False,2,1,0,enc,0,0,0,[],[],7,6,4 4 3 4 3 3,4,0.0,0.0,0.0,0.0,0.0,0.0,0,0.0,0.0,0.0,0.0,0.0
171,11,3.6715861999982735,2,True,0.5,acc,right,True,2,1,4,ret,1,4,0,"['3', '3', '4', '2', '3', '4']","[53.657502599999134, 53.78520339999886, 54.817062799997075, 55.24945780000053, 57.15321659999972, 57.32908879999741]",7,6,# # # # # #,None,53.657502599999134,53.78520339999886,54.817062799997075,55.24945780000053,57.15321659999972,57.32908879999741,2.6043663999989803,0.1277007999997295,1.0318593999982113,0.4323950000034529,1.9037587999991956,0.17587219999768422
172,12,0.0,2,False,0.0,None,right,False,2,1,0,enc,0,0,0,[],[],7,6,4 1 4 1 4 2,4,0.0,0.0,0.0,0.0,0.0,0.0,0,0.0,0.0,0.0,0.0,0.0
173,13,2.4307967000022472,2,True,0.5,acc,right,False,2,1,6,ret,1,10,0,"['2', '4', '1', '4', '1', '4']","[66.17823379999754, 66.70509169999787, 67.26504299999942, 67.72899209999741, 68.19307779999872, 68.60903049999979]",7,6,# # # # # #,None,66.17823379999754,66.70509169999787,67.26504299999942,67.72899209999741,68.19307779999872,68.60903049999979,2.349145000000135,0.5268579000003228,0.5599513000015577,0.46394909999798983,0.46408570000130567,0.4159527000010712
174,14,0.0,3,False,0.0,None,right,False,2,1,0,enc,0,0,1,[],[],7,6,2 1 4 3 1 2,6,0.0,0.0,0.0,0.0,0.0,0.0,0,0.0,0.0,0.0,0.0,0.0
175,15,2.519575700000132,3,True,0.5,acc,right,True,2,1,5,ret,1,5,1,"['2', '1', '4', '3', '2', '2']","[74.69737789999999, 74.8170140000002, 75.51309309999851, 75.70523989999856, 75.90503559999706, 77.21695360000012]",7,6,# # # # # #,None,74.69737789999999,74.8170140000002,75.51309309999851,75.70523989999856,75.90503559999706,77.21695360000012,-0.41165259999979753,0.11963610000020708,0.6960790999983146,0.19214680000004591,0.19979569999850355,1.311918000003061
176,16,0.0,2,False,0.0,None,right,False,2,1,0,enc,0,0,0,[],[],7,6,4 4 4 2 4 2,4,0.0,0.0,0.0,0.0,0.0,0.0,0,0.0,0.0,0.0,0.0,0.0
177,17,2.535801000001811,2,True,0.5,acc,right,False,2,1,6,ret,1,10,0,"['2', '4', '2', '4', '4', '4']","[86.64919169999848, 86.89713769999798, 87.21717839999837, 87.54555009999967, 89.02492749999874, 89.1849927000003]",7,6,# # # # # #,None,86.64919169999848,86.89713769999798,87.21717839999837,87.54555009999967,89.02492749999874,89.1849927000003,2.932238099998358,0.2479459999995015,0.32004070000039064,0.32837170000129845,1.4793773999990663,0.16006520000155433
178,18,0.0,3,False,0.0,None,right,False,2,1,0,enc,0,0,0,[],[],7,6,3 1 4 4 2 4,6,0.0,0.0,0.0,0.0,0.0,0.0,0,0.0,0.0,0.0,0.0,0.0
179,19,7.631913000001077,3,True,0.5,acc,right,False,2,1,6,ret,1,10,0,"['4', '2', '4', '4', '1', '3']","[96.59323649999715, 96.90500129999782, 97.36117059999742, 103.3930236999986, 103.99298879999697, 104.22514949999822]",7,6,# # # # # #,None,96.59323649999715,96.90500129999782,97.36117059999742,103.3930236999986,103.99298879999697,104.22514949999822,0.9082437999968533,0.31176480000067386,0.4561692999996012,6.031853100001172,0.5999650999983714,0.2321607000012591
180,20,0.0,3,False,0.0,None,right,False,2,1,0,enc,0,0,0,[],[],7,6,1 4 2 2 3 4,6,0.0,0.0,0.0,0.0,0.0,0.0,0,0.0,0.0,0.0,0.0,0.0
181,21,4.016170200000488,3,True,0.5,acc,right,True,2,1,4,ret,1,4,0,"['4', '3', '2', '2', '1', '4']","[111.35295489999771, 111.88092609999876, 112.1611668000005, 113.75301709999985, 114.78498869999748, 115.3691250999982]",7,6,# # # # # #,None,111.35295489999771,111.88092609999876,112.1611668000005,113.75301709999985,114.78498869999748,115.3691250999982,0.6278053999994881,0.5279712000010477,0.28024070000174106,1.5918502999993507,1.0319715999976324,0.5841364000007161
182,22,0.0,2,False,0.0,None,right,False,2,1,0,enc,0,0,1,[],[],7,6,1 1 2 1 1 3,4,0.0,0.0,0.0,0.0,0.0,0.0,0,0.0,0.0,0.0,0.0,0.0
183,23,1.4321551000030013,2,True,0.5,acc,right,False,2,1,6,ret,1,10,1,"['1', '1', '2', '1', '1', '3']","[123.48893589999716, 123.61690879999878, 124.32100999999966, 124.50485279999702, 124.69707299999936, 124.92109100000016]",7,6,# # # # # #,None,123.48893589999716,123.61690879999878,124.32100999999966,124.50485279999702,124.69707299999936,124.92109100000016,1.6198107999989588,0.1279729000016232,0.7041012000008777,0.18384279999736464,0.19222020000233897,0.22401800000079675
184,0,0.0,2,False,0.0,None,right,False,2,1,0,enc,0,0,1,[],[],8,6,4 2 3 2 2 2,4,0.0,0.0,0.0,0.0,0.0,0.0,0,0.0,0.0,0.0,0.0,0.0
185,1,1.2155249000024924,2,True,0.5,acc,right,True,2,1,5,ret,1,5,1,"['4', '3', '3', '2', '2', '2']","[6.805037499998434, 7.175279499999306, 7.380665099997714, 7.612547000000632, 7.869445799999085, 8.020562400000927]",8,6,# # # # # #,None,6.805037499998434,7.175279499999306,7.380665099997714,7.612547000000632,7.869445799999085,8.020562400000927,NaN,0.3702420000008715,0.205385599998408,0.23188190000291797,0.2568987999984529,0.15111660000184202
186,2,0.0,2,False,0.0,None,right,False,2,1,0,enc,0,0,1,[],[],8,6,1 1 1 3 1 4,4,0.0,0.0,0.0,0.0,0.0,0.0,0,0.0,0.0,0.0,0.0,0.0
187,3,2.6239584000031755,2,True,0.5,acc,right,False,2,1,6,ret,1,10,1,"['1', '1', '1', '3', '1', '4']","[15.996620399997482, 16.132589999997435, 17.628540699999576, 17.740616099999897, 18.100575299999036, 18.620578800000658]",8,6,# # # # # #,None,15.996620399997482,16.132589999997435,17.628540699999576,17.740616099999897,18.100575299999036,18.620578800000658,1.4760579999965557,0.13596959999995306,1.4959507000021404,0.11207540000032168,0.35995919999913895,0.5200035000016214
188,4,0.0,2,False,0.0,None,right,False,2,1,0,enc,0,0,0,[],[],8,6,2 1 2 1 3 4,4,0.0,0.0,0.0,0.0,0.0,0.0,0,0.0,0.0,0.0,0.0,0.0
189,5,1.055910999999469,2,True,0.5,acc,right,True,2,1,5,ret,1,5,0,"['4', '3', '1', '2', 'quoteleft', '2']","[27.412613399999827, 27.620583299998543, 27.89250229999743, 28.09267489999911, 28.301089699998556, 28.468524399999296]",8,6,# # # # # #,None,27.412613399999827,27.620583299998543,27.89250229999743,28.09267489999911,28.301089699998556,28.468524399999296,2.2920345999991696,0.20796989999871585,0.27191899999888847,0.2001726000016788,0.20841479999944568,0.16743470000074012
190,6,0.0,2,False,0.0,None,right,False,2,1,0,enc,0,0,1,[],[],8,6,1 3 1 4 2 3,4,0.0,0.0,0.0,0.0,0.0,0.0,0,0.0,0.0,0.0,0.0,0.0
191,7,1.6790966000007757,2,True,0.5,acc,right,False,2,1,6,ret,1,10,1,"['1', '3', '1', '4', '2', '3']","[36.84552139999869, 37.05254059999788, 37.32454359999974, 37.972582800000964, 38.276516800000536, 38.524617999999464]",8,6,# # # # # #,None,36.84552139999869,37.05254059999788,37.32454359999974,37.972582800000964,38.276516800000536,38.524617999999464,1.8769969999993918,0.20701919999919483,0.2720030000018596,0.6480392000012216,0.3039339999995718,0.24810119999892777
192,8,0.0,3,False,0.0,None,right,False,2,1,0,enc,0,0,1,[],[],8,6,1 4 3 3 2 2,6,0.0,0.0,0.0,0.0,0.0,0.0,0,0.0,0.0,0.0,0.0,0.0
193,9,1.5998368000000482,3,True,0.5,acc,right,False,2,1,6,ret,1,10,1,"['1', '4', '3', '3', '2', '2']","[45.084673999997904, 45.62050679999811, 45.84452779999992, 46.35661550000077, 46.56453010000041, 46.68451079999795]",8,6,# # # # # #,None,45.084673999997904,45.62050679999811,45.84452779999992,46.35661550000077,46.56453010000041,46.68451079999795,0.0600559999984398,0.5358328000002075,0.22402100000181235,0.5120877000008477,0.2079145999996399,0.1199806999975408
194,10,0.0,2,False,0.0,None,right,False,2,1,0,enc,0,0,0,[],[],8,6,4 3 3 4 4 1,4,0.0,0.0,0.0,0.0,0.0,0.0,0,0.0,0.0,0.0,0.0,0.0
195,11,5.351898299999448,2,True,0.5,acc,right,True,2,1,4,ret,1,4,0,"['1', '4', '3', '4', '3', '4']","[55.7566353000002, 56.35639099999753, 57.884489699998085, 58.228559099999984, 60.92463879999923, 61.108533599999646]",8,6,# # # # # #,None,55.7566353000002,56.35639099999753,57.884489699998085,58.228559099999984,60.92463879999923,61.108533599999646,2.5721245000022464,0.5997556999973312,1.5280987000005553,0.34406940000189934,2.6960796999992453,0.18389480000041658
196,12,0.0,2,False,0.0,None,right,False,2,1,0,enc,0,0,0,[],[],8,6,3 1 3 2 4 2,4,0.0,0.0,0.0,0.0,0.0,0.0,0,0.0,0.0,0.0,0.0,0.0
197,13,5.616449900000589,2,True,0.5,acc,right,False,2,1,6,ret,1,10,0,"['2', '4', '2', '3', '1', '3']","[70.05249289999847, 70.35677519999808, 72.70849140000064, 72.86848090000058, 75.5805193999986, 75.66894279999906]",8,6,# # # # # #,None,70.05249289999847,70.35677519999808,72.70849140000064,72.86848090000058,75.5805193999986,75.66894279999906,2.4439592999988236,0.3042822999996133,2.3517162000025564,0.15998949999993783,2.712038499998016,0.08842340000046534
198,14,0.0,3,False,0.0,None,right,False,2,1,0,enc,0,0,1,[],[],8,6,1 3 2 3 3 3,6,0.0,0.0,0.0,0.0,0.0,0.0,0,0.0,0.0,0.0,0.0,0.0
199,15,1.056018100000074,3,True,0.5,acc,right,False,2,1,6,ret,1,10,1,"['1', '3', '2', '3', '3', '3']","[82.01247660000081, 82.4285635999986, 82.62847859999965, 82.82833670000036, 82.95658659999754, 83.06849470000088]",8,6,# # # # # #,None,82.01247660000081,82.4285635999986,82.62847859999965,82.82833670000036,82.95658659999754,83.06849470000088,-0.15646619999824907,0.41608699999778764,0.1999150000010559,0.1998581000007107,0.12824989999717218,0.1119081000033475
200,16,0.0,3,False,0.0,None,right,False,2,1,0,enc,0,0,1,[],[],8,6,4 2 4 4 2 4,6,0.0,0.0,0.0,0.0,0.0,0.0,0,0.0,0.0,0.0,0.0,0.0
201,17,1.600193300000683,3,True,0.5,acc,right,False,2,1,6,ret,1,10,1,"['4', '2', '4', '4', '2', '4']","[89.26043439999921, 89.65249459999905, 89.87647110000034, 90.20447889999923, 90.68461159999788, 90.8606276999999]",8,6,# # # # # #,None,89.26043439999921,89.65249459999905,89.87647110000034,90.20447889999923,90.68461159999788,90.8606276999999,-0.30806030000167084,0.39206019999983255,0.22397650000129943,0.3280077999988862,0.4801326999986486,0.17601610000201617
202,18,0.0,3,False,0.0,None,right,False,2,1,0,enc,0,0,0,[],[],8,6,1 2 2 3 1 1,6,0.0,0.0,0.0,0.0,0.0,0.0,0,0.0,0.0,0.0,0.0,0.0
203,19,4.391991899999994,3,True,0.5,acc,right,True,2,1,4,ret,1,4,0,"['1', '1', '4', '3', '2', '1']","[98.61250559999826, 98.73256810000021, 98.9245176000004, 102.72448539999823, 102.8683643000004, 103.00449749999825]",8,6,# # # # # #,None,98.61250559999826,98.73256810000021,98.9245176000004,102.72448539999823,102.8683643000004,103.00449749999825,1.2518778999983624,0.12006250000194996,0.19194950000019162,3.7999677999978303,0.1438789000021643,0.13613319999785745
204,20,0.0,3,False,0.0,None,right,False,2,1,0,enc,0,0,0,[],[],8,6,2 3 1 1 3 4,6,0.0,0.0,0.0,0.0,0.0,0.0,0,0.0,0.0,0.0,0.0,0.0
205,21,4.456068100000266,3,True,0.5,acc,right,False,2,1,6,ret,1,10,0,"['4', '3', '1', '1', '3', '2']","[110.68443829999887, 111.42028659999778, 111.86841669999922, 114.29244950000066, 114.4924131000007, 115.14050639999914]",8,6,# # # # # #,None,110.68443829999887,111.42028659999778,111.86841669999922,114.29244950000066,114.4924131000007,115.14050639999914,1.1799408000006224,0.7358482999989064,0.4481301000014355,2.4240328000014415,0.19996360000004643,0.6480932999984361
206,22,0.0,3,False,0.0,None,right,False,2,1,0,enc,0,0,0,[],[],8,6,4 3 2 2 1 3,6,0.0,0.0,0.0,0.0,0.0,0.0,0,0.0,0.0,0.0,0.0,0.0
207,23,3.968044799999916,3,True,0.5,acc,right,False,2,1,6,ret,1,10,0,"['3', '1', '2', '2', '3', '4']","[122.37234650000028, 122.80443449999802, 123.16452930000014, 125.80451819999871, 126.16439850000097, 126.34039130000019]",8,6,# # # # # #,None,122.37234650000028,122.80443449999802,123.16452930000014,125.80451819999871,126.16439850000097,126.34039130000019,0.7318401000011363,0.43208799999774783,0.36009480000211624,2.6399888999985706,0.3598803000022599,0.17599279999922146
