,Tn,MT,chunk,display_trial_feedback,feedback_dur,feedback_type,hand,is_error,item_dur,iti_dur,number_correct,phase,phase_type,points,recall_dir,response,response_time,run_number,seq_length,seq_str,trial_dur,P1,P2,P3,P4,P5,P6,IPI_0,IPI_1,IPI_2,IPI_3,IPI_4,IPI_5
0,0,0.0,3,False,0.0,None,right,False,2,1,0,enc,0,0,1,[],[],1,6,2 2 2 4 4 3,6,0.0,0.0,0.0,0.0,0.0,0.0,0,0.0,0.0,0.0,0.0,0.0
1,1,4.119733800005633,3,True,0.5,acc,right,False,2,1,6,ret,1,10,1,"['2', '2', '2', '4', '4', '3']","[6.916036800001166, 7.347846400007256, 7.739784100005636, 10.179761100007454, 10.667737900002976, 11.0357706000068]",1,6,# # # # # #,None,6.916036800001166,7.347846400007256,7.739784100005636,10.179761100007454,10.667737900002976,11.0357706000068,0.41603680000116583,0.4318096000060905,0.3919376999983797,2.439977000001818,0.487976799995522,0.36803270000382327
2,2,0.0,3,False,0.0,None,right,False,2,1,0,enc,0,0,1,[],[],1,6,1 3 1 3 1 2,6,0.0,0.0,0.0,0.0,0.0,0.0,0,0.0,0.0,0.0,0.0,0.0
3,3,2.8076743999990867,3,True,0.5,acc,right,False,2,1,6,ret,1,10,1,"['1', '3', '1', '3', '1', '2']","[18.204226900008507, 18.65997070001322, 19.06804280000506, 20.339883400010876, 20.691829000003054, 21.011901300007594]",1,6,# # # # # #,None,18.204226900008507,18.65997070001322,19.06804280000506,20.339883400010876,20.691829000003054,21.011901300007594,0.6684563000017079,0.4557438000047114,0.40807209999184124,1.2718406000058167,0.35194559999217745,0.32007230000454
4,4,0.0,3,False,0.0,None,right,False,2,1,0,enc,0,0,0,[],[],1,6,4 1 4 3 4 3,6,0.0,0.0,0.0,0.0,0.0,0.0,0,0.0,0.0,0.0,0.0,0.0
5,5,3.0160259999975096,3,True,0.5,acc,right,False,2,1,6,ret,1,10,0,"['3', '4', '3', '4', '1', '4']","[28.427767400004086, 28.76378740000655, 29.53975550000905, 30.667757200004417, 31.08376040001167, 31.443793400001596]",1,6,# # # # # #,None,28.427767400004086,28.76378740000655,29.53975550000905,30.667757200004417,31.08376040001167,31.443793400001596,0.9158660999964923,0.33602000000246335,0.7759681000025012,1.128001699995366,0.4160032000072533,0.3600329999899259
6,6,0.0,2,False,0.0,None,right,False,2,1,0,enc,0,0,1,[],[],1,6,4 3 4 1 4 4,4,0.0,0.0,0.0,0.0,0.0,0.0,0,0.0,0.0,0.0,0.0,0.0
7,7,2.9282129000057457,2,True,0.5,acc,right,True,2,1,4,ret,1,4,1,"['4', '2', '2', '1', '4', '4']","[41.099506600003224, 41.70764770000824, 42.26781520000077, 42.7077130000107, 43.62767130001157, 44.02771950000897]",1,6,# # # # # #,None,41.099506600003224,41.70764770000824,42.26781520000077,42.7077130000107,43.62767130001157,44.02771950000897,3.155713200001628,0.6081411000050139,0.5601674999925308,0.4398978000099305,0.9199583000008715,0.40004819999739993
8,8,0.0,2,False,0.0,None,right,False,2,1,0,enc,0,0,0,[],[],1,6,4 1 3 3 1 4,4,0.0,0.0,0.0,0.0,0.0,0.0,0,0.0,0.0,0.0,0.0,0.0
9,9,2.639829099993221,2,True,0.5,acc,right,True,2,1,4,ret,1,4,0,"['4', '1', '3', '3', '4', '1']","[53.83570220001275, 54.26778470000136, 54.69175310000719, 55.075720900000306, 56.07567640001071, 56.47553130000597]",1,6,# # # # # #,None,53.83570220001275,54.26778470000136,54.69175310000719,55.075720900000306,56.07567640001071,56.47553130000597,3.3079827000037767,0.4320824999886099,0.42396840000583325,0.3839677999931155,0.999955500010401,0.3998548999952618
10,10,0.0,2,False,0.0,None,right,False,2,1,0,enc,0,0,0,[],[],1,6,1 3 4 2 2 2,4,0.0,0.0,0.0,0.0,0.0,0.0,0,0.0,0.0,0.0,0.0,0.0
11,11,2.839793899998768,2,True,0.5,acc,right,False,2,1,6,ret,1,10,0,"['2', '2', '2', '4', '3', '1']","[66.30792700000165, 66.73969530001341, 67.62747770000715, 68.05965580001066, 68.74771940000937, 69.14772090000042]",1,6,# # # # # #,None,66.30792700000165,66.73969530001341,67.62747770000715,68.05965580001066,68.74771940000937,69.14772090000042,3.3323956999956863,0.43176830001175404,0.8877823999937391,0.43217810000351164,0.6880635999987135,0.40000149999104906
12,12,0.0,3,False,0.0,None,right,False,2,1,0,enc,0,0,0,[],[],1,6,4 1 1 1 4 3,6,0.0,0.0,0.0,0.0,0.0,0.0,0,0.0,0.0,0.0,0.0,0.0
13,13,4.024067200007266,3,True,0.5,acc,right,True,2,1,4,ret,1,4,0,"['3', '4', '1', '3', '1', '1']","[76.35561800000141, 78.01160610000079, 78.58764170001086, 79.67569480001112, 80.02760510001099, 80.37968520000868]",1,6,# # # # # #,None,76.35561800000141,78.01160610000079,78.58764170001086,79.67569480001112,80.02760510001099,80.37968520000868,0.7078971000009915,1.6559880999993766,0.5760356000100728,1.088053100000252,0.3519102999998722,0.35208009999769274
14,14,0.0,2,False,0.0,None,right,False,2,1,0,enc,0,0,1,[],[],1,6,1 2 3 4 3 1,4,0.0,0.0,0.0,0.0,0.0,0.0,0,0.0,0.0,0.0,0.0,0.0
15,15,2.600132500010659,2,True,0.5,acc,right,False,2,1,6,ret,1,10,1,"['1', '2', '3', '4', '3', '1']","[88.9635460999998, 89.40377240000817, 90.11567400000058, 90.6036957000033, 91.13171480000892, 91.56367860001046]",1,6,# # # # # #,None,88.9635460999998,89.40377240000817,90.11567400000058,90.6036957000033,91.13171480000892,91.56367860001046,2.083860899991123,0.44022630000836216,0.7119015999924159,0.4880217000027187,0.528019100005622,0.4319638000015402
16,0,0.0,3,False,0.0,None,right,False,2,1,0,enc,0,0,1,[],[],1,6,4 2 2 1 1 2,6,0.0,0.0,0.0,0.0,0.0,0.0,0,0.0,0.0,0.0,0.0,0.0
17,1,3.4000550000055227,3,True,0.5,acc,right,True,2,1,5,ret,1,5,1,"['3', '2', '2', '1', '1', '2']","[5.265614599993569, 6.705786100006662, 7.025730399996974, 7.721706900003483, 8.089731400003075, 8.665669599999092]",1,6,# # # # # #,None,5.265614599993569,6.705786100006662,7.025730399996974,7.721706900003483,8.089731400003075,8.665669599999092,NaN,1.4401715000130935,0.31994429999031126,0.695976500006509,0.3680244999995921,0.5759381999960169
18,2,0.0,3,False,0.0,None,right,False,2,1,0,enc,0,0,1,[],[],1,6,3 3 2 2 3 3,6,0.0,0.0,0.0,0.0,0.0,0.0,0,0.0,0.0,0.0,0.0,0.0
19,3,2.624097099993378,3,True,0.5,acc,right,False,2,1,6,ret,1,10,1,"['3', '3', '2', '2', '3', '3']","[15.793565600004513, 16.24965670000529, 16.713569800005644, 17.56965190000483, 17.953817600006005, 18.41766269999789]",1,6,# # # # # #,None,15.793565600004513,16.24965670000529,16.713569800005644,17.56965190000483,17.953817600006005,18.41766269999789,0.6278960000054212,0.45609110000077635,0.46391310000035446,0.8560820999991847,0.38416570000117645,0.46384509999188595
20,4,0.0,2,False,0.0,None,right,False,2,1,0,enc,0,0,0,[],[],1,6,1 4 4 2 2 1,4,0.0,0.0,0.0,0.0,0.0,0.0,0,0.0,0.0,0.0,0.0,0.0
21,5,6.93598710000515,2,True,0.5,acc,right,True,2,1,4,ret,1,4,0,"['1', '2', '2', '4', '1', '2']","[29.54567789999419, 29.993697700003395, 31.5457180999947, 32.15373979999276, 36.153599099998246, 36.48166499999934]",1,6,# # # # # #,None,29.54567789999419,29.993697700003395,31.5457180999947,32.15373979999276,36.153599099998246,36.48166499999934,4.628015199996298,0.44801980000920594,1.5520203999913065,0.6080216999980621,3.9998593000054825,0.3280659000010928
22,6,0.0,3,False,0.0,None,right,False,2,1,0,enc,0,0,0,[],[],1,6,2 3 3 2 4 1,6,0.0,0.0,0.0,0.0,0.0,0.0,0,0.0,0.0,0.0,0.0,0.0
23,7,4.19198889999825,3,True,0.5,acc,right,False,2,1,6,ret,1,10,0,"['1', '4', '2', '3', '3', '2']","[44.28969930000312, 46.14567779999925, 46.689596500000334, 47.537704899994424, 47.92167569999583, 48.48168820000137]",1,6,# # # # # #,None,44.28969930000312,46.14567779999925,46.689596500000334,47.537704899994424,47.92167569999583,48.48168820000137,1.3080343000037828,1.8559784999961266,0.5439187000010861,0.8481083999940893,0.38397080000140704,0.5600125000055414
24,8,0.0,2,False,0.0,None,right,False,2,1,0,enc,0,0,0,[],[],1,6,4 3 2 1 3 4,4,0.0,0.0,0.0,0.0,0.0,0.0,0,0.0,0.0,0.0,0.0,0.0
25,9,5.320131100001163,2,True,0.5,acc,right,False,2,1,6,ret,1,10,0,"['4', '3', '1', '2', '3', '4']","[57.67357309999352, 58.145593099994585, 59.86023750000459, 60.28954939999676, 62.5937108000071, 62.99370419999468]",1,6,# # # # # #,None,57.67357309999352,58.145593099994585,59.86023750000459,60.28954939999676,62.5937108000071,62.99370419999468,2.6918848999921465,0.47202000000106636,1.7146444000100018,0.4293118999921717,2.3041614000103436,0.3999933999875793
26,10,0.0,2,False,0.0,None,right,False,2,1,0,enc,0,0,1,[],[],1,6,4 3 3 1 1 2,4,0.0,0.0,0.0,0.0,0.0,0.0,0,0.0,0.0,0.0,0.0,0.0
27,11,5.239862899994479,2,True,0.5,acc,right,True,2,1,4,ret,1,4,1,"['4', '3', '2', '1', '4', '2']","[72.2176310000068, 72.79370330000529, 74.85753809999733, 75.23419259999355, 77.10559380000632, 77.45749390000128]",1,6,# # # # # #,None,72.2176310000068,72.79370330000529,74.85753809999733,75.23419259999355,77.10559380000632,77.45749390000128,2.723926800012123,0.5760722999984864,2.063834799992037,0.3766544999962207,1.8714012000127696,0.35190009999496397
28,12,0.0,3,False,0.0,None,right,False,2,1,0,enc,0,0,0,[],[],1,6,2 3 4 2 2 1,6,0.0,0.0,0.0,0.0,0.0,0.0,0,0.0,0.0,0.0,0.0,0.0
29,13,4.0800805000035325,3,True,0.5,acc,right,False,2,1,6,ret,1,10,0,"['1', '2', '2', '4', '3', '2']","[84.0094689999969, 84.99363320000703, 85.40148109999427, 87.1135765999934, 87.68155500000285, 88.08954950000043]",1,6,# # # # # #,None,84.0094689999969,84.99363320000703,85.40148109999427,87.1135765999934,87.68155500000285,88.08954950000043,0.05197509999561589,0.9841642000101274,0.4078478999872459,1.7120954999991227,0.5679784000094514,0.4079944999975851
30,14,0.0,2,False,0.0,None,right,False,2,1,0,enc,0,0,1,[],[],1,6,4 2 3 4 2 1,4,0.0,0.0,0.0,0.0,0.0,0.0,0,0.0,0.0,0.0,0.0,0.0
31,15,2.271878800005652,2,True,0.5,acc,right,False,2,1,6,ret,1,10,1,"['4', '2', '3', '4', '2', '1']","[97.52959289999853, 97.97750209999504, 98.45757699999376, 98.92159759999777, 99.47357889999694, 99.80147170000419]",1,6,# # # # # #,None,97.52959289999853,97.97750209999504,98.45757699999376,98.92159759999777,99.47357889999694,99.80147170000419,2.9400433999981033,0.44790919999650214,0.4800748999987263,0.46402060000400525,0.55198129999917,0.3278928000072483
32,16,0.0,2,False,0.0,None,right,False,2,1,0,enc,0,0,1,[],[],1,6,1 4 1 3 2 4,4,0.0,0.0,0.0,0.0,0.0,0.0,0,0.0,0.0,0.0,0.0,0.0
33,17,5.312041799988948,2,True,0.5,acc,right,True,2,1,0,ret,1,0,1,"['3', '1', '4', '1', '4', '2']","[110.02556910000567, 110.44152690000192, 113.02535969999735, 113.48150870000245, 114.85749929999292, 115.33761089999462]",1,6,# # # # # #,None,110.02556910000567,110.44152690000192,113.02535969999735,113.48150870000245,114.85749929999292,115.33761089999462,3.724097400001483,0.4159577999962494,2.5838327999954345,0.45614900000509806,1.3759905999904731,0.48011160000169184
34,18,0.0,3,False,0.0,None,right,False,2,1,0,enc,0,0,0,[],[],1,6,2 3 3 3 3 4,6,0.0,0.0,0.0,0.0,0.0,0.0,0,0.0,0.0,0.0,0.0,0.0
35,19,2.8640077000018214,3,True,0.5,acc,right,False,2,1,6,ret,1,10,0,"['4', '3', '3', '3', '3', '2']","[122.68154809999396, 123.20150729999295, 123.67346799999359, 124.51357189999544, 125.04134710000653, 125.54555579999578]",1,6,# # # # # #,None,122.68154809999396,123.20150729999295,123.67346799999359,124.51357189999544,125.04134710000653,125.54555579999578,0.8439371999993455,0.5199591999989934,0.4719607000006363,0.84010390000185,0.5277752000110922,0.504208699989249
36,20,0.0,3,False,0.0,None,right,False,2,1,0,enc,0,0,1,[],[],1,6,1 1 3 2 2 4,6,0.0,0.0,0.0,0.0,0.0,0.0,0,0.0,0.0,0.0,0.0,0.0
37,21,1.864269500001684,3,True,0.5,acc,right,False,2,1,6,ret,1,10,1,"['1', '1', '3', '2', '2', '4']","[132.28944429999683, 132.63345690000278, 133.02523339999607, 133.4414880999975, 133.74541230000614, 134.1537137999985]",1,6,# # # # # #,None,132.28944429999683,132.63345690000278,133.02523339999607,133.4414880999975,133.74541230000614,134.1537137999985,0.24388850000104867,0.3440126000059536,0.39177649999328423,0.4162547000014456,0.3039242000086233,0.4083014999923762
38,22,0.0,2,False,0.0,None,right,False,2,1,0,enc,0,0,0,[],[],1,6,4 1 1 1 4 4,4,0.0,0.0,0.0,0.0,0.0,0.0,0,0.0,0.0,0.0,0.0,0.0
39,23,2.4716696000105003,2,True,0.5,acc,right,False,2,1,6,ret,1,10,0,"['4', '4', '1', '1', '1', '4']","[142.39383099999395, 142.78535449999617, 143.40152689999377, 143.6814924000064, 144.02526789999683, 144.86550060000445]",1,6,# # # # # #,None,142.39383099999395,142.78535449999617,143.40152689999377,143.6814924000064,144.02526789999683,144.86550060000445,1.7401171999954386,0.39152350000222214,0.6161723999975948,0.2799655000126222,0.34377549999044277,0.8402327000076184
40,0,0.0,3,False,0.0,None,right,False,2,1,0,enc,0,0,1,[],[],2,6,3 2 2 3 2 3,6,0.0,0.0,0.0,0.0,0.0,0.0,0,0.0,0.0,0.0,0.0,0.0
41,1,1.504232499995851,3,True,0.5,acc,right,False,2,1,6,ret,1,10,1,"['3', '2', '2', '3', '2', '3']","[5.4074093000090215, 5.7594566000043415, 6.015456599998288, 6.3433411000005435, 6.663470200001029, 6.9116418000048725]",2,6,# # # # # #,None,5.4074093000090215,5.7594566000043415,6.015456599998288,6.3433411000005435,6.663470200001029,6.9116418000048725,NaN,0.3520472999953199,0.2559999999939464,0.32788450000225566,0.3201291000004858,0.2481716000038432
42,2,0.0,2,False,0.0,None,right,False,2,1,0,enc,0,0,1,[],[],2,6,2 4 4 4 4 1,4,0.0,0.0,0.0,0.0,0.0,0.0,0,0.0,0.0,0.0,0.0,0.0
43,3,1.928064699997776,2,True,0.5,acc,right,False,2,1,6,ret,1,10,1,"['2', '4', '4', '4', '4', '1']","[16.471371100007673, 16.943363300000783, 17.287347400008002, 17.66338050000195, 18.02344129999983, 18.39943580000545]",2,6,# # # # # #,None,16.471371100007673,16.943363300000783,17.287347400008002,17.66338050000195,18.02344129999983,18.39943580000545,3.0597293000028003,0.47199219999311026,0.34398410000721924,0.37603309999394696,0.360060799997882,0.37599450000561774
44,4,0.0,3,False,0.0,None,right,False,2,1,0,enc,0,0,1,[],[],2,6,1 4 1 4 4 3,6,0.0,0.0,0.0,0.0,0.0,0.0,0,0.0,0.0,0.0,0.0,0.0
45,5,5.608013299992309,3,True,0.5,acc,right,True,2,1,3,ret,1,3,1,"['1', '1', '4', '1', '4', '3']","[25.503366700009792, 25.887351900004433, 25.943364200007636, 27.087311399998725, 30.167479299998377, 31.1113800000021]",2,6,# # # # # #,None,25.503366700009792,25.887351900004433,25.943364200007636,27.087311399998725,30.167479299998377,31.1113800000021,0.6039309000043431,0.3839851999946404,0.05601230000320356,1.1439471999910893,3.080167899999651,0.9439007000037236
46,6,0.0,3,False,0.0,None,right,False,2,1,0,enc,0,0,0,[],[],2,6,1 3 1 3 1 3,6,0.0,0.0,0.0,0.0,0.0,0.0,0,0.0,0.0,0.0,0.0,0.0
47,7,3.568010000002687,3,True,0.5,acc,right,True,2,1,5,ret,1,5,0,"['3', '1', '3', '3', '3', '1']","[37.74329250000301, 38.10334080000757, 38.51144430000568, 39.199513300001854, 40.94335590000264, 41.311302500005695]",2,6,# # # # # #,None,37.74329250000301,38.10334080000757,38.51144430000568,39.199513300001854,40.94335590000264,41.311302500005695,0.13191250000090804,0.3600483000045642,0.4081034999981057,0.688068999996176,1.7438426000007894,0.36794660000305157
48,8,0.0,2,False,0.0,None,right,False,2,1,0,enc,0,0,0,[],[],2,6,2 1 4 4 4 2,4,0.0,0.0,0.0,0.0,0.0,0.0,0,0.0,0.0,0.0,0.0,0.0
49,9,3.928491499988013,2,True,0.5,acc,right,True,2,1,4,ret,1,4,0,"['2', '4', '4', '4', '2', '1']","[50.271328900009394, 50.85515590000432, 51.40729360000114, 51.91930590000993, 53.84732329999679, 54.19982039999741]",2,6,# # # # # #,None,50.271328900009394,50.85515590000432,51.40729360000114,51.91930590000993,53.84732329999679,54.19982039999741,2.4600264000036987,0.5838269999949262,0.5521376999968197,0.5120123000087915,1.9280173999868566,0.35249710000061896
50,10,0.0,3,False,0.0,None,right,False,2,1,0,enc,0,0,0,[],[],2,6,3 3 4 1 2 3,6,0.0,0.0,0.0,0.0,0.0,0.0,0,0.0,0.0,0.0,0.0,0.0
51,11,4.056026499994913,3,True,0.5,acc,right,True,2,1,5,ret,1,5,0,"['3', '2', '1', '4', '4', '3']","[61.09532510000281, 61.39944010000909, 61.79928010000731, 63.03936510000494, 64.11937290000787, 65.15135159999772]",2,6,# # # # # #,None,61.09532510000281,61.39944010000909,61.79928010000731,63.03936510000494,64.11937290000787,65.15135159999772,0.3955047000054037,0.3041150000062771,0.3998399999982212,1.2400849999976344,1.0800078000029316,1.0319786999898497
52,12,0.0,2,False,0.0,None,right,False,2,1,0,enc,0,0,0,[],[],2,6,4 2 2 2 3 1,4,0.0,0.0,0.0,0.0,0.0,0.0,0,0.0,0.0,0.0,0.0,0.0
53,13,3.687956699999632,2,True,0.5,acc,right,False,2,1,6,ret,1,10,0,"['1', '3', '2', '2', '2', '4']","[73.56731640000362, 74.2313187999971, 75.59909220000554, 75.97510170000896, 76.40730459999759, 77.25527310000325]",2,6,# # # # # #,None,73.56731640000362,74.2313187999971,75.59909220000554,75.97510170000896,76.40730459999759,77.25527310000325,1.915964800005895,0.6640023999934783,1.3677734000084456,0.3760095000034198,0.43220289998862427,0.8479685000056634
54,14,0.0,3,False,0.0,None,right,False,2,1,0,enc,0,0,1,[],[],2,6,3 2 2 1 1 4,6,0.0,0.0,0.0,0.0,0.0,0.0,0,0.0,0.0,0.0,0.0,0.0
55,15,2.2479569999995874,3,True,0.5,acc,right,False,2,1,6,ret,1,10,1,"['3', '2', '2', '1', '1', '4']","[85.08729320000566, 85.5272413000057, 85.89527090000047, 86.29524880000099, 86.67128960000991, 87.33525020000525]",2,6,# # # # # #,None,85.08729320000566,85.5272413000057,85.89527090000047,86.29524880000099,86.67128960000991,87.33525020000525,1.33202010000241,0.4399481000000378,0.36802959999477025,0.3999779000005219,0.3760408000089228,0.6639605999953346
56,16,0.0,2,False,0.0,None,right,False,2,1,0,enc,0,0,0,[],[],2,6,4 3 2 1 2 2,4,0.0,0.0,0.0,0.0,0.0,0.0,0,0.0,0.0,0.0,0.0,0.0
57,17,2.015981800010195,2,True,0.5,acc,right,False,2,1,6,ret,1,10,0,"['2', '2', '1', '2', '3', '4']","[96.17528820000007, 96.59119140000257, 96.99123650000547, 97.31927690000157, 97.69519650000439, 98.19127000001026]",2,6,# # # # # #,None,96.17528820000007,96.59119140000257,96.99123650000547,97.31927690000157,97.69519650000439,98.19127000001026,2.34003799999482,0.4159032000025036,0.40004510000289883,0.32804039999609813,0.3759196000028169,0.4960735000058776
58,18,0.0,2,False,0.0,None,right,False,2,1,0,enc,0,0,1,[],[],2,6,3 1 4 4 2 3,4,0.0,0.0,0.0,0.0,0.0,0.0,0,0.0,0.0,0.0,0.0,0.0
59,19,2.064092700005858,2,True,0.5,acc,right,False,2,1,6,ret,1,10,1,"['3', '1', '4', '4', '2', '3']","[108.29521450000175, 108.6952164000104, 109.19120130001102, 109.55119399999967, 110.07131720001053, 110.3593072000076]",2,6,# # # # # #,None,108.29521450000175,108.6952164000104,109.19120130001102,109.55119399999967,110.07131720001053,110.3593072000076,3.603944499991485,0.40000190000864677,0.49598490000062156,0.359992699988652,0.5201232000108575,0.2879899999970803
60,20,0.0,3,False,0.0,None,right,False,2,1,0,enc,0,0,0,[],[],2,6,1 1 4 4 3 2,6,0.0,0.0,0.0,0.0,0.0,0.0,0,0.0,0.0,0.0,0.0,0.0
61,21,2.1120255999994697,3,True,0.5,acc,right,False,2,1,6,ret,1,10,0,"['2', '3', '4', '4', '1', '1']","[118.57521370000904, 118.9591475000052, 119.52720650000265, 119.88725150001119, 120.34323670000595, 120.68723930000851]",2,6,# # # # # #,None,118.57521370000904,118.9591475000052,119.52720650000265,119.88725150001119,120.34323670000595,120.68723930000851,1.715906500001438,0.3839337999961572,0.5680589999974472,0.36004500000854023,0.45598519999475684,0.3440026000025682
62,22,0.0,2,False,0.0,None,right,False,2,1,0,enc,0,0,1,[],[],2,6,4 2 1 2 4 1,4,0.0,0.0,0.0,0.0,0.0,0.0,0,0.0,0.0,0.0,0.0,0.0
63,23,4.9118917000014335,2,True,0.5,acc,right,True,2,1,5,ret,1,5,1,"['3', '2', '1', '2', '4', '1']","[129.95125749999715, 131.32718680000107, 132.00725900000543, 132.44720490000327, 134.50317789999826, 134.8631491999986]",2,6,# # # # # #,None,129.95125749999715,131.32718680000107,132.00725900000543,132.44720490000327,134.50317789999826,134.8631491999986,2.764018199988641,1.3759293000039179,0.6800722000043606,0.43994589999783784,2.0559729999949923,0.35997130000032485
64,0,0.0,2,False,0.0,None,right,False,2,1,0,enc,0,0,1,[],[],3,6,1 3 3 1 2 3,4,0.0,0.0,0.0,0.0,0.0,0.0,0,0.0,0.0,0.0,0.0,0.0
65,1,18.618691700001364,2,True,0.5,acc,right,True,2,1,2,ret,1,2,1,"['m', '1', '1', '3', '2', '3']","[-5.38041460000386, 8.766262399993138, 11.53412820000085, 11.8462642999948, 12.982303500000853, 13.238277099997504]",3,6,# # # # # #,None,-5.38041460000386,8.766262399993138,11.53412820000085,11.8462642999948,12.982303500000853,13.238277099997504,NaN,14.146676999996998,2.767865800007712,0.31213609999394976,1.1360392000060529,0.2559735999966506
66,2,0.0,3,False,0.0,None,right,False,2,1,0,enc,0,0,0,[],[],3,6,2 3 1 2 2 1,6,0.0,0.0,0.0,0.0,0.0,0.0,0,0.0,0.0,0.0,0.0,0.0
67,3,2.264073799990001,3,True,0.5,acc,right,False,2,1,6,ret,1,10,0,"['1', '2', '2', '1', '3', '2']","[20.1422348000051, 20.670102499992936, 20.942307100005564, 21.926268700000946, 22.174281200001133, 22.4063085999951]",3,6,# # # # # #,None,20.1422348000051,20.670102499992936,20.942307100005564,21.926268700000946,22.174281200001133,22.4063085999951,0.4039577000075951,0.5278676999878371,0.27220460001262836,0.9839615999953821,0.24801250000018626,0.23202739999396726
68,4,0.0,3,False,0.0,None,right,False,2,1,0,enc,0,0,1,[],[],3,6,4 1 3 2 2 1,6,0.0,0.0,0.0,0.0,0.0,0.0,0,0.0,0.0,0.0,0.0,0.0
69,5,1.4640738999878522,3,True,0.5,acc,right,False,2,1,6,ret,1,10,1,"['4', '1', '3', '2', '2', '1']","[29.38206970000465, 29.702190199997858, 29.9901816000056, 30.40619510000397, 30.61402929999167, 30.8461435999925]",3,6,# # # # # #,None,29.38206970000465,29.702190199997858,29.9901816000056,30.40619510000397,30.61402929999167,30.8461435999925,0.4757611000095494,0.3201204999932088,0.2879914000077406,0.4160134999983711,0.20783419998770114,0.23211430000083055
70,6,0.0,2,False,0.0,None,right,False,2,1,0,enc,0,0,0,[],[],3,6,3 4 4 3 4 1,4,0.0,0.0,0.0,0.0,0.0,0.0,0,0.0,0.0,0.0,0.0,0.0
71,7,5.648104299994882,2,True,0.5,acc,right,True,2,1,5,ret,1,5,0,"['1', '4', '3', '4', '1', '3']","[39.61414170000353, 40.63024399999995, 42.102265499997884, 42.478302599993185, 45.03008270000282, 45.26224599999841]",3,6,# # # # # #,None,39.61414170000353,40.63024399999995,42.102265499997884,42.478302599993185,45.03008270000282,45.26224599999841,2.2679981000110274,1.0161022999964189,1.4720214999979362,0.3760370999953011,2.551780100009637,0.23216329999559093
72,8,0.0,3,False,0.0,None,right,False,2,1,0,enc,0,0,1,[],[],3,6,1 2 2 4 4 3,6,0.0,0.0,0.0,0.0,0.0,0.0,0,0.0,0.0,0.0,0.0,0.0
73,9,1.5679654000123264,3,True,0.5,acc,right,False,2,1,6,ret,1,10,1,"['1', '2', '2', '4', '4', '3']","[51.80624399999215, 52.086682900000596, 52.30285350000486, 52.782246699993266, 53.062329799999134, 53.374209400004474]",3,6,# # # # # #,None,51.80624399999215,52.086682900000596,52.30285350000486,52.782246699993266,53.062329799999134,53.374209400004474,0.04399799999373499,0.2804389000084484,0.21617060000426136,0.479393199988408,0.2800831000058679,0.31187960000534076
74,10,0.0,2,False,0.0,None,right,False,2,1,0,enc,0,0,0,[],[],3,6,4 4 3 2 3 3,4,0.0,0.0,0.0,0.0,0.0,0.0,0,0.0,0.0,0.0,0.0,0.0
75,11,2.3679172999982256,2,True,0.5,acc,right,False,2,1,6,ret,1,10,0,"['3', '3', '2', '3', '4', '4']","[61.958287200002815, 62.22211600000446, 63.48614890000317, 63.766233200003626, 64.07013690000167, 64.32620450000104]",3,6,# # # # # #,None,61.958287200002815,62.22211600000446,63.48614890000317,63.766233200003626,64.07013690000167,64.32620450000104,2.08407779999834,0.2638288000016473,1.2640328999987105,0.28008430000045337,0.30390369999804534,0.2560675999993691
76,12,0.0,3,False,0.0,None,right,False,2,1,0,enc,0,0,0,[],[],3,6,2 4 3 2 2 4,6,0.0,0.0,0.0,0.0,0.0,0.0,0,0.0,0.0,0.0,0.0,0.0
77,13,10.191930699991644,3,True,0.5,acc,right,False,2,1,6,ret,1,10,0,"['4', '2', '2', '3', '4', '2']","[71.61413010000251, 71.96619989999454, 72.24602629999572, 80.97415209999599, 81.28625269999611, 81.80606079999416]",3,6,# # # # # #,None,71.61413010000251,71.96619989999454,72.24602629999572,80.97415209999599,81.28625269999611,81.80606079999416,0.787925600001472,0.35206979999202304,0.2798264000011841,8.72812580000027,0.31210060000012163,0.5198080999980448
78,14,0.0,2,False,0.0,None,right,False,2,1,0,enc,0,0,0,[],[],3,6,2 3 4 4 1 2,4,0.0,0.0,0.0,0.0,0.0,0.0,0,0.0,0.0,0.0,0.0,0.0
79,15,2.2159465000004275,2,True,0.5,acc,right,True,2,1,5,ret,1,5,0,"['2', '1', '4', '4', '4', '2']","[91.2460793999926, 91.70210579999548, 92.40619500000321, 92.70220810000319, 93.21414909999294, 93.46202589999302]",3,6,# # # # # #,None,91.2460793999926,91.70210579999548,92.40619500000321,92.70220810000319,93.21414909999294,93.46202589999302,2.9400185999984387,0.45602640000288375,0.7040892000077292,0.29601309999998193,0.5119409999897471,0.2478768000000855
80,16,0.0,3,False,0.0,None,right,False,2,1,0,enc,0,0,1,[],[],3,6,2 1 1 2 4 1,6,0.0,0.0,0.0,0.0,0.0,0.0,0,0.0,0.0,0.0,0.0,0.0
81,17,1.86419749999186,3,True,0.5,acc,right,False,2,1,6,ret,1,10,1,"['2', '1', '1', '2', '4', '1']","[100.30995690000418, 100.65396029999829, 100.85408029999235, 101.24606309999945, 101.71810919999552, 102.17415439999604]",3,6,# # # # # #,None,100.30995690000418,100.65396029999829,100.85408029999235,101.24606309999945,101.71810919999552,102.17415439999604,0.3479310000111582,0.3440033999941079,0.20011999999405816,0.3919828000070993,0.47204609999607783,0.45604520000051707
82,18,0.0,3,False,0.0,None,right,False,2,1,0,enc,0,0,0,[],[],3,6,3 2 1 1 3 2,6,0.0,0.0,0.0,0.0,0.0,0.0,0,0.0,0.0,0.0,0.0,0.0
83,19,3.1601424999971632,3,True,0.5,acc,right,False,2,1,6,ret,1,10,0,"['2', '3', '1', '1', '2', '3']","[109.54995640000561, 109.96608389999892, 110.46208990000014, 112.33406049999758, 112.52601400000276, 112.71009890000278]",3,6,# # # # # #,None,109.54995640000561,109.96608389999892,110.46208990000014,112.33406049999758,112.52601400000276,112.71009890000278,0.8758020000095712,0.41612749999330845,0.4960060000012163,1.8719705999974394,0.19195350000518374,0.1840849000000162
84,20,0.0,2,False,0.0,None,right,False,2,1,0,enc,0,0,1,[],[],3,6,1 4 1 4 2 1,4,0.0,0.0,0.0,0.0,0.0,0.0,0,0.0,0.0,0.0,0.0,0.0
85,21,1.5039734000019962,2,True,0.5,acc,right,False,2,1,6,ret,1,10,1,"['1', '4', '1', '4', '2', '1']","[121.32604899999569, 121.62186430000293, 122.0299931000045, 122.31004070000199, 122.59808070000145, 122.83002239999769]",3,6,# # # # # #,None,121.32604899999569,121.62186430000293,122.0299931000045,122.31004070000199,122.59808070000145,122.83002239999769,2.115950099992915,0.2958153000072343,0.4081288000015775,0.28004759999748785,0.2880399999994552,0.23194169999624137
86,22,0.0,2,False,0.0,None,right,False,2,1,0,enc,0,0,1,[],[],3,6,1 3 2 1 1 3,4,0.0,0.0,0.0,0.0,0.0,0.0,0,0.0,0.0,0.0,0.0,0.0
87,23,2.4558675999869592,2,True,0.5,acc,right,False,2,1,6,ret,1,10,1,"['1', '3', '2', '1', '1', '3']","[131.4780499000044, 132.05403850000584, 132.93393830000423, 133.25415290000092, 133.6620738999918, 133.93391749999137]",3,6,# # # # # #,None,131.4780499000044,132.05403850000584,132.93393830000423,133.25415290000092,133.6620738999918,133.93391749999137,2.1480275000067195,0.5759886000014376,0.879899799998384,0.3202145999966888,0.4079209999908926,0.2718435999995563
88,0,0.0,2,False,0.0,None,right,False,2,1,0,enc,0,0,1,[],[],4,6,4 4 1 3 2 2,4,0.0,0.0,0.0,0.0,0.0,0.0,0,0.0,0.0,0.0,0.0,0.0
89,1,1.8321143000066515,2,True,0.5,acc,right,False,2,1,6,ret,1,10,1,"['4', '4', '1', '3', '2', '2']","[7.0604927999957, 7.388491599995177, 8.020469800001592, 8.316347800006042, 8.628601000003982, 8.892607100002351]",4,6,# # # # # #,None,7.0604927999957,7.388491599995177,8.020469800001592,8.316347800006042,8.628601000003982,8.892607100002351,NaN,0.32799879999947734,0.6319782000064151,0.29587800000444986,0.3122531999979401,0.2640060999983689
90,2,0.0,2,False,0.0,None,right,False,2,1,0,enc,0,0,0,[],[],4,6,3 2 1 3 4 3,4,0.0,0.0,0.0,0.0,0.0,0.0,0,0.0,0.0,0.0,0.0,0.0
91,3,4.960387200000696,2,True,0.5,acc,right,True,2,1,5,ret,1,5,0,"['3', '4', '3', '1', '2', '4']","[18.82053100000485, 19.180545499999425, 21.036479899994447, 21.436341799999354, 23.444550700005493, 23.780918200005544]",4,6,# # # # # #,None,18.82053100000485,19.180545499999425,21.036479899994447,21.436341799999354,23.444550700005493,23.780918200005544,3.4279239000024972,0.3600144999945769,1.8559343999950215,0.3998619000049075,2.0082089000061387,0.3363675000000512
92,4,0.0,3,False,0.0,None,right,False,2,1,0,enc,0,0,0,[],[],4,6,2 3 2 3 1 2,6,0.0,0.0,0.0,0.0,0.0,0.0,0,0.0,0.0,0.0,0.0,0.0
93,5,4.68800999999803,3,True,0.5,acc,right,True,2,1,3,ret,1,3,0,"['2', '1', '3', '3', '4', '3']","[31.284467999998014, 31.556437399995048, 31.820466899996973, 35.30045290000271, 35.67655000000377, 35.972477999996045]",4,6,# # # # # #,None,31.284467999998014,31.556437399995048,31.820466899996973,35.30045290000271,35.67655000000377,35.972477999996045,1.00354979999247,0.2719693999970332,0.26402950000192504,3.479986000005738,0.37609710000106134,0.2959279999922728
94,6,0.0,3,False,0.0,None,right,False,2,1,0,enc,0,0,1,[],[],4,6,4 4 4 2 2 1,6,0.0,0.0,0.0,0.0,0.0,0.0,0,0.0,0.0,0.0,0.0,0.0
95,7,2.3194468000001507,3,True,0.5,acc,right,False,2,1,6,ret,1,10,1,"['4', '4', '4', '2', '2', '1']","[42.8688805999991, 43.20435610000277, 43.5483649999951, 44.693385699996725, 44.91648250000435, 45.18832739999925]",4,6,# # # # # #,None,42.8688805999991,43.20435610000277,43.5483649999951,44.693385699996725,44.91648250000435,45.18832739999925,0.39640260000305716,0.33547550000366755,0.34400889999233186,1.1450207000016235,0.22309680000762455,0.27184489999490324
96,8,0.0,2,False,0.0,None,right,False,2,1,0,enc,0,0,1,[],[],4,6,3 1 4 3 4 1,4,0.0,0.0,0.0,0.0,0.0,0.0,0,0.0,0.0,0.0,0.0,0.0
97,9,2.496186200005468,2,True,0.5,acc,right,True,2,1,5,ret,1,5,1,"['3', '1', '4', '3', '3', '1']","[54.30031219999364, 54.70841419999488, 55.340471200004686, 55.76438839999901, 56.32441830000607, 56.79649839999911]",4,6,# # # # # #,None,54.30031219999364,54.70841419999488,55.340471200004686,55.76438839999901,56.32441830000607,56.79649839999911,2.6119847999943886,0.40810200000123587,0.6320570000098087,0.423917199994321,0.5600299000070663,0.47208009999303613
98,10,0.0,3,False,0.0,None,right,False,2,1,0,enc,0,0,1,[],[],4,6,3 1 4 2 4 3,6,0.0,0.0,0.0,0.0,0.0,0.0,0,0.0,0.0,0.0,0.0,0.0
99,11,2.4719305999897188,3,True,0.5,acc,right,False,2,1,6,ret,1,10,1,"['3', '1', '4', '2', '4', '3']","[63.908417700004065, 64.26039029999811, 65.30830730000162, 65.70848760000081, 66.06846270000096, 66.38034829999378]",4,6,# # # # # #,None,63.908417700004065,64.26039029999811,65.30830730000162,65.70848760000081,66.06846270000096,66.38034829999378,0.6119193000049563,0.35197259999404196,1.0479170000035083,0.40018029999919236,0.3599751000001561,0.31188559999282006
100,12,0.0,2,False,0.0,None,right,False,2,1,0,enc,0,0,0,[],[],4,6,2 1 4 1 4 4,4,0.0,0.0,0.0,0.0,0.0,0.0,0,0.0,0.0,0.0,0.0,0.0
101,13,3.0960682000004454,2,True,0.5,acc,right,False,2,1,6,ret,1,10,0,"['4', '4', '1', '4', '1', '2']","[75.16428250000172, 75.59645369999635, 76.66051000000152, 77.1404007999954, 77.99634359999618, 78.26035070000216]",4,6,# # # # # #,None,75.16428250000172,75.59645369999635,76.66051000000152,77.1404007999954,77.99634359999618,78.26035070000216,2.283934200007934,0.4321711999946274,1.064056300005177,0.47989079999388196,0.8559428000007756,0.2640071000059834
102,14,0.0,3,False,0.0,None,right,False,2,1,0,enc,0,0,0,[],[],4,6,4 4 4 2 2 3,6,0.0,0.0,0.0,0.0,0.0,0.0,0,0.0,0.0,0.0,0.0,0.0
103,15,2.1038416999945184,3,True,0.5,acc,right,False,2,1,6,ret,1,10,0,"['3', '2', '2', '4', '4', '4']","[85.25236959999893, 85.65222810000705, 86.03635310000391, 86.46842560000368, 86.81236389999685, 87.35621129999345]",4,6,# # # # # #,None,85.25236959999893,85.65222810000705,86.03635310000391,86.46842560000368,86.81236389999685,87.35621129999345,0.49201889999676496,0.39985850000812206,0.3841249999968568,0.4320724999997765,0.3439382999931695,0.5438473999965936
104,16,0.0,2,False,0.0,None,right,False,2,1,0,enc,0,0,1,[],[],4,6,4 2 3 2 4 3,4,0.0,0.0,0.0,0.0,0.0,0.0,0,0.0,0.0,0.0,0.0,0.0
105,17,1.8959725000022445,2,True,0.5,acc,right,False,2,1,6,ret,1,10,1,"['4', '2', '3', '2', '4', '3']","[96.81243659999745, 97.16436930000782, 97.51635869999882, 97.92436600000656, 98.34058249999362, 98.7084090999997]",4,6,# # # # # #,None,96.81243659999745,97.16436930000782,97.51635869999882,97.92436600000656,98.34058249999362,98.7084090999997,2.9562253000040073,0.3519327000103658,0.3519893999909982,0.4080073000077391,0.41621649998705834,0.367826600006083
106,18,0.0,2,False,0.0,None,right,False,2,1,0,enc,0,0,0,[],[],4,6,4 4 2 3 3 4,4,0.0,0.0,0.0,0.0,0.0,0.0,0,0.0,0.0,0.0,0.0,0.0
107,19,3.512200600001961,2,True,0.5,acc,right,False,2,1,6,ret,1,10,0,"['4', '3', '3', '2', '4', '4']","[108.30831049999688, 108.9083982000011, 110.02838220000558, 110.39631850000296, 111.42848139999842, 111.82051109999884]",4,6,# # # # # #,None,108.30831049999688,108.9083982000011,110.02838220000558,110.39631850000296,111.42848139999842,111.82051109999884,3.0999013999971794,0.6000877000042237,1.1199840000044787,0.36793629999738187,1.0321628999954555,0.39202970000042114
108,20,0.0,3,False,0.0,None,right,False,2,1,0,enc,0,0,1,[],[],4,6,3 3 3 1 1 2,6,0.0,0.0,0.0,0.0,0.0,0.0,0,0.0,0.0,0.0,0.0,0.0
109,21,1.5920975000044564,3,True,0.5,acc,right,False,2,1,6,ret,1,10,1,"['3', '3', '3', '1', '1', '2']","[118.43616630000179, 118.74835470000107, 119.03639150000527, 119.42831240000669, 119.77229720000469, 120.02826380000624]",4,6,# # # # # #,None,118.43616630000179,118.74835470000107,119.03639150000527,119.42831240000669,119.77229720000469,120.02826380000624,0.11565520000294782,0.31218839999928605,0.28803680000419263,0.39192090000142343,0.34398479999799747,0.2559666000015568
110,22,0.0,3,False,0.0,None,right,False,2,1,0,enc,0,0,0,[],[],4,6,1 4 3 2 2 1,6,0.0,0.0,0.0,0.0,0.0,0.0,0,0.0,0.0,0.0,0.0,0.0
111,23,1.8478123999957456,3,True,0.5,acc,right,False,2,1,6,ret,1,10,0,"['1', '2', '2', '3', '4', '1']","[127.12448860000586, 127.492316200005, 127.75634000000719, 128.07615209999494, 128.57218200000352, 128.9723010000016]",4,6,# # # # # #,None,127.12448860000586,127.492316200005,127.75634000000719,128.07615209999494,128.57218200000352,128.9723010000016,0.596224799999618,0.3678275999991456,0.2640238000021782,0.3198120999877574,0.4960299000085797,0.4001189999980852
112,0,0.0,3,False,0.0,None,right,False,2,1,0,enc,0,0,1,[],[],5,6,4 3 1 1 1 1,6,0.0,0.0,0.0,0.0,0.0,0.0,0,0.0,0.0,0.0,0.0,0.0
113,1,1.6559998000011549,3,True,0.5,acc,right,False,2,1,6,ret,1,10,1,"['4', '3', '1', '1', '1', '1']","[5.6313154000090435, 5.959168100001989, 6.575231000009808, 6.863219400009257, 7.08725380001124, 7.287315200010198]",5,6,# # # # # #,None,5.6313154000090435,5.959168100001989,6.575231000009808,6.863219400009257,7.08725380001124,7.287315200010198,NaN,0.3278526999929454,0.6160629000078188,0.28798839999944903,0.22403440000198316,0.20006139999895822
114,2,0.0,3,False,0.0,None,right,False,2,1,0,enc,0,0,1,[],[],5,6,2 4 2 3 2 4,6,0.0,0.0,0.0,0.0,0.0,0.0,0,0.0,0.0,0.0,0.0,0.0
115,3,3.1360105999920047,3,True,0.5,acc,right,False,2,1,6,ret,1,10,1,"['2', '4', '2', '3', '2', '4']","[14.319275800007745, 14.695247800002107, 15.10322129999986, 16.575195500001428, 16.84722850000253, 17.45528639999975]",5,6,# # # # # #,None,14.319275800007745,14.695247800002107,15.10322129999986,16.575195500001428,16.84722850000253,17.45528639999975,0.5319605999975465,0.3759719999943627,0.4079734999977518,1.4719742000015685,0.27203300000110175,0.6080578999972204
116,4,0.0,2,False,0.0,None,right,False,2,1,0,enc,0,0,1,[],[],5,6,4 3 3 2 2 2,4,0.0,0.0,0.0,0.0,0.0,0.0,0,0.0,0.0,0.0,0.0,0.0
117,5,7.447944600004121,2,True,0.5,acc,right,True,2,1,5,ret,1,5,1,"['4', '3', '2', '2', '2', '2']","[26.471258000005037, 27.031420100000105, 29.767385200000717, 33.35921500000404, 33.58355460000166, 33.91920260000916]",5,6,# # # # # #,None,26.471258000005037,27.031420100000105,29.767385200000717,33.35921500000404,33.58355460000166,33.91920260000916,2.5159716000052867,0.5601620999950683,2.7359651000006124,3.5918298000033246,0.2243395999976201,0.3356480000074953
118,6,0.0,2,False,0.0,None,right,False,2,1,0,enc,0,0,1,[],[],5,6,2 3 1 3 2 3,4,0.0,0.0,0.0,0.0,0.0,0.0,0,0.0,0.0,0.0,0.0,0.0
119,7,2.088132099990617,2,True,0.5,acc,right,False,2,1,6,ret,1,10,1,"['2', '3', '1', '3', '2', '3']","[44.07125950000773, 44.43124380000518, 45.079230400006054, 45.423196200004895, 45.83121480001137, 46.159391599998344]",5,6,# # # # # #,None,44.07125950000773,44.43124380000518,45.079230400006054,45.423196200004895,45.83121480001137,46.159391599998344,3.65205689999857,0.35998429999744985,0.6479866000008769,0.34396579999884125,0.4080186000064714,0.32817679998697713
120,8,0.0,2,False,0.0,None,right,False,2,1,0,enc,0,0,0,[],[],5,6,3 2 3 1 3 4,4,0.0,0.0,0.0,0.0,0.0,0.0,0,0.0,0.0,0.0,0.0,0.0
121,9,2.59986289999506,2,True,0.5,acc,right,False,2,1,6,ret,1,10,0,"['4', '3', '1', '3', '2', '3']","[55.84734780000872, 56.375182600007975, 56.90336440000101, 57.447251200006576, 58.111205300010624, 58.44721070000378]",5,6,# # # # # #,None,55.84734780000872,56.375182600007975,56.90336440000101,57.447251200006576,58.111205300010624,58.44721070000378,3.187956200010376,0.5278347999992548,0.5281817999930354,0.5438868000055663,0.6639541000040481,0.33600539999315515
122,10,0.0,3,False,0.0,None,right,False,2,1,0,enc,0,0,0,[],[],5,6,1 3 1 4 1 1,6,0.0,0.0,0.0,0.0,0.0,0.0,0,0.0,0.0,0.0,0.0,0.0
123,11,4.7759272000112105,3,True,0.5,acc,right,False,2,1,6,ret,1,10,0,"['1', '1', '4', '1', '3', '1']","[65.16723300000012, 65.4952137000073, 65.8951606000046, 68.08718750000116, 69.55121430000872, 69.94316020001133]",5,6,# # # # # #,None,65.16723300000012,65.4952137000073,65.8951606000046,68.08718750000116,69.55121430000872,69.94316020001133,0.22002229999634437,0.32798070000717416,0.39994689999730326,2.192026899996563,1.4640268000075594,0.39194590000261087
124,12,0.0,3,False,0.0,None,right,False,2,1,0,enc,0,0,0,[],[],5,6,3 3 4 4 1 1,6,0.0,0.0,0.0,0.0,0.0,0.0,0,0.0,0.0,0.0,0.0,0.0
125,13,1.7440148999885423,3,True,0.5,acc,right,False,2,1,6,ret,1,10,0,"['1', '1', '4', '4', '3', '3']","[76.76716090000991, 77.12727880000602, 77.51920940000855, 77.84722310000507, 78.21522209999966, 78.51117579999845]",5,6,# # # # # #,None,76.76716090000991,77.12727880000602,77.51920940000855,77.84722310000507,78.21522209999966,78.51117579999845,0.32400069999857806,0.3601178999961121,0.39193060000252444,0.32801369999651797,0.3679989999945974,0.2959536999987904
126,14,0.0,2,False,0.0,None,right,False,2,1,0,enc,0,0,0,[],[],5,6,1 4 1 2 4 4,4,0.0,0.0,0.0,0.0,0.0,0.0,0,0.0,0.0,0.0,0.0,0.0
127,15,3.2718953000003235,2,True,0.5,acc,right,True,2,1,5,ret,1,5,0,"['4', '4', '2', '1', '3', '1']","[87.24722480001219, 87.59902639999927, 88.83120600000257, 89.27926270000171, 90.19115120000788, 90.51912010001251]",5,6,# # # # # #,None,87.24722480001219,87.59902639999927,88.83120600000257,89.27926270000171,90.19115120000788,90.51912010001251,2.236049000013736,0.35180159998708405,1.2321796000032919,0.44805669999914244,0.9118885000061709,0.32796890000463463
128,16,0.0,2,False,0.0,None,right,False,2,1,0,enc,0,0,1,[],[],5,6,1 2 2 1 4 2,4,0.0,0.0,0.0,0.0,0.0,0.0,0,0.0,0.0,0.0,0.0,0.0
129,17,2.9359425000002366,2,True,0.5,acc,right,False,2,1,6,ret,1,10,1,"['1', '2', '2', '1', '4', '2']","[99.43116730000474, 99.97512790000474, 100.49522380001144, 100.99922540000989, 101.95121660000586, 102.36710980000498]",5,6,# # # # # #,None,99.43116730000474,99.97512790000474,100.49522380001144,100.99922540000989,101.95121660000586,102.36710980000498,2.41204719999223,0.5439605999999912,0.5200959000067087,0.5040015999984462,0.9519911999959731,0.4158931999991182
130,18,0.0,3,False,0.0,None,right,False,2,1,0,enc,0,0,1,[],[],5,6,2 2 1 3 1 3,6,0.0,0.0,0.0,0.0,0.0,0.0,0,0.0,0.0,0.0,0.0,0.0
131,19,7.4878784000029555,3,True,0.5,acc,right,True,2,1,4,ret,1,4,1,"['1', '2', '3', '3', '1', '3']","[109.27112320000015, 111.32713000000513, 114.6710851000098, 116.42311719999998, 116.59912930001155, 116.7590016000031]",5,6,# # # # # #,None,109.27112320000015,111.32713000000513,114.6710851000098,116.42311719999998,116.59912930001155,116.7590016000031,0.40401339999516495,2.0560068000049796,3.3439551000046777,1.7520320999901742,0.17601210001157597,0.15987229999154806
132,20,0.0,2,False,0.0,None,right,False,2,1,0,enc,0,0,0,[],[],5,6,3 4 2 3 1 4,4,0.0,0.0,0.0,0.0,0.0,0.0,0,0.0,0.0,0.0,0.0,0.0
133,21,5.3681219999998575,2,True,0.5,acc,right,True,2,1,5,ret,1,5,0,"['4', '1', '3', '2', '1', '3']","[125.8229338000092, 126.2711219000048, 128.64710300001025, 129.32707280000614, 130.23908840000513, 131.19105580000905]",5,6,# # # # # #,None,125.8229338000092,126.2711219000048,128.64710300001025,129.32707280000614,130.23908840000513,131.19105580000905,2.563932200006093,0.4481880999956047,2.375981100005447,0.679969799995888,0.9120155999989947,0.9519674000039231
134,22,0.0,3,False,0.0,None,right,False,2,1,0,enc,0,0,0,[],[],5,6,2 3 3 3 4 2,6,0.0,0.0,0.0,0.0,0.0,0.0,0,0.0,0.0,0.0,0.0,0.0
135,23,4.367845000000671,3,True,0.5,acc,right,True,2,1,5,ret,1,5,0,"['2', '4', '3', '3', '3', '1']","[139.39905279999948, 139.76698870000837, 140.74293440001202, 141.07135340000968, 141.98290480001015, 143.76689780000015]",5,6,# # # # # #,None,139.39905279999948,139.76698870000837,140.74293440001202,141.07135340000968,141.98290480001015,143.76689780000015,1.7079969999904279,0.367935900008888,0.9759457000036491,0.3284189999976661,0.9115514000004623,1.783992999990005
136,0,0.0,2,False,0.0,None,right,False,2,1,0,enc,0,0,1,[],[],6,6,2 3 1 1 2 3,4,0.0,0.0,0.0,0.0,0.0,0.0,0,0.0,0.0,0.0,0.0,0.0
137,1,1.3120409000111977,2,True,0.5,acc,right,False,2,1,6,ret,1,10,1,"['2', '3', '1', '1', '2', '3']","[6.7759652999957325, 7.072067400004016, 7.432126900006551, 7.688092800002778, 7.896051100004115, 8.08800620000693]",6,6,# # # # # #,None,6.7759652999957325,7.072067400004016,7.432126900006551,7.688092800002778,7.896051100004115,8.08800620000693,NaN,0.29610210000828374,0.36005950000253506,0.25596589999622665,0.2079583000013372,0.19195510000281502
138,2,0.0,3,False,0.0,None,right,False,2,1,0,enc,0,0,1,[],[],6,6,2 3 3 4 2 2,6,0.0,0.0,0.0,0.0,0.0,0.0,0,0.0,0.0,0.0,0.0,0.0
139,3,1.88821829999506,3,True,0.5,acc,right,False,2,1,6,ret,1,10,1,"['2', '3', '3', '4', '2', '2']","[14.743807899998501, 15.02395410000463, 15.255989900004352, 15.736107400007313, 16.41602810000768, 16.63202619999356]",6,6,# # # # # #,None,14.743807899998501,15.02395410000463,15.255989900004352,15.736107400007313,16.41602810000768,16.63202619999356,0.15580169999157079,0.2801462000061292,0.23203579999972135,0.4801175000029616,0.6799207000003662,0.2159980999858817
140,4,0.0,2,False,0.0,None,right,False,2,1,0,enc,0,0,0,[],[],6,6,3 1 2 4 4 4,4,0.0,0.0,0.0,0.0,0.0,0.0,0,0.0,0.0,0.0,0.0,0.0
141,5,5.095092899995507,2,True,0.5,acc,right,False,2,1,6,ret,1,10,0,"['4', '4', '4', '2', '1', '3']","[25.104777600005036, 25.400093899996136, 25.776089999999385, 28.33606279999367, 29.97585909999907, 30.199870500000543]",6,6,# # # # # #,None,25.104777600005036,25.400093899996136,25.776089999999385,28.33606279999367,29.97585909999907,30.199870500000543,1.9727514000114752,0.2953162999911001,0.375996100003249,2.5599727999942843,1.6397963000054006,0.2240114000014728
142,6,0.0,3,False,0.0,None,right,False,2,1,0,enc,0,0,1,[],[],6,6,3 3 1 3 2 2,6,0.0,0.0,0.0,0.0,0.0,0.0,0,0.0,0.0,0.0,0.0,0.0
143,7,1.1999935000058028,3,True,0.5,acc,right,False,2,1,6,ret,1,10,1,"['3', '3', '1', '3', '2', '2']","[36.72801229999459, 36.95199539999885, 37.208026399996015, 37.52799820000655, 37.784071500005666, 37.92800580000039]",6,6,# # # # # #,None,36.72801229999459,36.95199539999885,37.208026399996015,37.52799820000655,37.784071500005666,37.92800580000039,0.02814179999404587,0.22398310000426136,0.25603099999716505,0.31997180001053493,0.256073299999116,0.14393429999472573
144,8,0.0,2,False,0.0,None,right,False,2,1,0,enc,0,0,1,[],[],6,6,1 2 2 2 4 1,4,0.0,0.0,0.0,0.0,0.0,0.0,0,0.0,0.0,0.0,0.0,0.0
145,9,3.3440358999941964,2,True,0.5,acc,right,False,2,1,6,ret,1,10,1,"['1', '2', '2', '2', '4', '1']","[46.639989400006016, 48.12798049999401, 48.431953899998916, 48.79192190000322, 49.655950999993365, 49.98402530000021]",6,6,# # # # # #,None,46.639989400006016,48.12798049999401,48.431953899998916,48.79192190000322,49.655950999993365,49.98402530000021,2.211983600005624,1.487991099987994,0.3039734000049066,0.35996800000430085,0.8640290999901481,0.3280743000068469
146,10,0.0,3,False,0.0,None,right,False,2,1,0,enc,0,0,1,[],[],6,6,3 1 4 4 2 4,6,0.0,0.0,0.0,0.0,0.0,0.0,0,0.0,0.0,0.0,0.0,0.0
147,11,3.032036100004916,3,True,0.5,acc,right,False,2,1,6,ret,1,10,1,"['3', '1', '4', '4', '2', '4']","[57.52795659999538, 57.91980499999772, 59.05596610000066, 59.999930000005406, 60.280077000003075, 60.559992700000294]",6,6,# # # # # #,None,57.52795659999538,57.91980499999772,59.05596610000066,59.999930000005406,60.280077000003075,60.559992700000294,1.0439312999951653,0.39184840000234544,1.136161100002937,0.9439639000047464,0.2801469999976689,0.2799156999972183
148,12,0.0,3,False,0.0,None,right,False,2,1,0,enc,0,0,0,[],[],6,6,3 4 1 3 4 2,6,0.0,0.0,0.0,0.0,0.0,0.0,0,0.0,0.0,0.0,0.0,0.0
149,13,3.8880782000051113,3,True,0.5,acc,right,True,2,1,4,ret,1,4,0,"['2', '4', '3', '4', '1', '3']","[68.90392260000226, 69.20797329999914, 69.55983030000061, 71.62393169999996, 72.4799456000037, 72.79200080000737]",6,6,# # # # # #,None,68.90392260000226,69.20797329999914,69.55983030000061,71.62393169999996,72.4799456000037,72.79200080000737,1.8439299000019673,0.3040506999968784,0.35185700000147335,2.0641013999993447,0.8560139000037452,0.3120552000036696
150,14,0.0,3,False,0.0,None,right,False,2,1,0,enc,0,0,0,[],[],6,6,1 2 1 3 1 1,6,0.0,0.0,0.0,0.0,0.0,0.0,0,0.0,0.0,0.0,0.0,0.0
151,15,3.960078100004466,3,True,0.5,acc,right,True,2,1,5,ret,1,5,0,"['1', '1', '3', '4', '2', '1']","[78.9438669999945, 79.39990699999908, 79.9758434999967, 81.60005130000354, 82.67188039999746, 82.90394509999896]",6,6,# # # # # #,None,78.9438669999945,79.39990699999908,79.9758434999967,81.60005130000354,82.67188039999746,82.90394509999896,-0.3481338000128744,0.45604000000457745,0.5759364999976242,1.6242078000068432,1.07182909999392,0.23206470000150148
152,16,0.0,2,False,0.0,None,right,False,2,1,0,enc,0,0,1,[],[],6,6,2 1 4 3 3 2,4,0.0,0.0,0.0,0.0,0.0,0.0,0,0.0,0.0,0.0,0.0,0.0
153,17,3.5919547000085004,2,True,0.5,acc,right,False,2,1,6,ret,1,10,1,"['2', '1', '4', '3', '3', '2']","[91.79198809999798, 92.38394210000115, 93.24795020000602, 93.6398279999994, 95.07996109999658, 95.38394280000648]",6,6,# # # # # #,None,91.79198809999798,92.38394210000115,93.24795020000602,93.6398279999994,95.07996109999658,95.38394280000648,2.3880429999990156,0.5919540000031702,0.8640081000048667,0.3918777999933809,1.4401330999971833,0.3039817000098992
154,18,0.0,2,False,0.0,None,right,False,2,1,0,enc,0,0,0,[],[],6,6,1 4 4 1 2 3,4,0.0,0.0,0.0,0.0,0.0,0.0,0,0.0,0.0,0.0,0.0,0.0
155,19,4.5039996999985314,2,True,0.5,acc,right,True,2,1,4,ret,1,4,0,"['3', '2', '1', '4', '2', '3']","[105.40787080000155, 105.72785219999787, 107.54403619999357, 107.86392930000147, 109.68785079999361, 109.91187050000008]",6,6,# # # # # #,None,105.40787080000155,105.72785219999787,107.54403619999357,107.86392930000147,109.68785079999361,109.91187050000008,3.523927999995067,0.3199813999963226,1.816183999995701,0.31989310000790283,1.8239214999921387,0.22401970000646543
156,20,0.0,2,False,0.0,None,right,False,2,1,0,enc,0,0,0,[],[],6,6,2 1 2 3 4 4,4,0.0,0.0,0.0,0.0,0.0,0.0,0,0.0,0.0,0.0,0.0,0.0
157,21,5.440026299998863,2,True,0.5,acc,right,False,2,1,6,ret,1,10,0,"['4', '4', '3', '2', '1', '2']","[119.20775159999903, 119.55193509999663, 121.67976250000356, 122.02384470000106, 124.47195130000182, 124.64777789999789]",6,6,# # # # # #,None,119.20775159999903,119.55193509999663,121.67976250000356,122.02384470000106,124.47195130000182,124.64777789999789,2.795881099998951,0.3441834999975981,2.127827400006936,0.34408219999750145,2.448106600000756,0.1758265999960713
158,22,0.0,3,False,0.0,None,right,False,2,1,0,enc,0,0,0,[],[],6,6,3 1 3 4 2 3,6,0.0,0.0,0.0,0.0,0.0,0.0,0,0.0,0.0,0.0,0.0,0.0
159,23,7.063959799997972,3,True,0.5,acc,right,False,2,1,6,ret,1,10,0,"['3', '2', '4', '3', '1', '3']","[132.24783829999797, 133.44788779999362, 134.1277548999933, 138.5038971000031, 139.02377709999564, 139.31179809999594]",6,6,# # # # # #,None,132.24783829999797,133.44788779999362,134.1277548999933,138.5038971000031,139.02377709999564,139.31179809999594,1.1000604000000749,1.2000494999956572,0.679867099999683,4.376142200009781,0.5198799999925541,0.28802100000029895
160,0,0.0,2,False,0.0,None,right,False,2,1,0,enc,0,0,1,[],[],7,6,2 4 4 2 1 3,4,0.0,0.0,0.0,0.0,0.0,0.0,0,0.0,0.0,0.0,0.0,0.0
161,1,2.639883000010741,2,True,0.5,acc,right,True,2,1,5,ret,1,5,1,"['2', '4', '4', '2', '1', '2']","[7.280831700001727, 7.672779600005015, 9.160734000004595, 9.432727700012038, 9.712919300000067, 9.920714700012468]",7,6,# # # # # #,None,7.280831700001727,7.672779600005015,9.160734000004595,9.432727700012038,9.712919300000067,9.920714700012468,NaN,0.39194790000328794,1.4879543999995803,0.2719937000074424,0.28019159998802934,0.20779540001240093
162,2,0.0,3,False,0.0,None,right,False,2,1,0,enc,0,0,1,[],[],7,6,2 4 3 1 4 4,6,0.0,0.0,0.0,0.0,0.0,0.0,0,0.0,0.0,0.0,0.0,0.0
163,3,1.6080862999951933,3,True,0.5,acc,right,False,2,1,6,ret,1,10,1,"['2', '4', '3', '1', '4', '4']","[16.648702300008154, 16.984761600004276, 17.272757400001865, 17.608837899999344, 18.000739399998565, 18.256788600003347]",7,6,# # # # # #,None,16.648702300008154,16.984761600004276,17.272757400001865,17.608837899999344,18.000739399998565,18.256788600003347,0.22798759999568574,0.3360592999961227,0.2879957999975886,0.3360804999974789,0.3919014999992214,0.2560492000047816
164,4,0.0,3,False,0.0,None,right,False,2,1,0,enc,0,0,1,[],[],7,6,3 3 4 4 4 1,6,0.0,0.0,0.0,0.0,0.0,0.0,0,0.0,0.0,0.0,0.0,0.0
165,5,1.5761745999916457,3,True,0.5,acc,right,False,2,1,6,ret,1,10,1,"['3', '3', '4', '4', '4', '1']","[24.912668600009056, 25.240829300004407, 25.5450092000101, 25.944564300007187, 26.21663460000127, 26.4888432000007]",7,6,# # # # # #,None,24.912668600009056,25.240829300004407,25.5450092000101,25.944564300007187,26.21663460000127,26.4888432000007,0.155880000005709,0.328160699995351,0.3041799000056926,0.3995550999970874,0.27207029999408405,0.2722085999994306
166,6,0.0,2,False,0.0,None,right,False,2,1,0,enc,0,0,1,[],[],7,6,4 1 2 3 3 2,4,0.0,0.0,0.0,0.0,0.0,0.0,0,0.0,0.0,0.0,0.0,0.0
167,7,1.3838758999918357,2,True,0.5,acc,right,False,2,1,6,ret,1,10,1,"['4', '1', '2', '3', '3', '2']","[36.872818900010316, 37.20068290000199, 37.47271529999853, 37.736806500004604, 38.048741600010544, 38.25669480000215]",7,6,# # # # # #,None,36.872818900010316,37.20068290000199,37.47271529999853,37.736806500004604,38.048741600010544,38.25669480000215,3.8839757000096142,0.3278639999916777,0.27203239999653306,0.264091200006078,0.3119351000059396,0.2079531999916071
168,8,0.0,3,False,0.0,None,right,False,2,1,0,enc,0,0,0,[],[],7,6,3 4 2 1 2 2,6,0.0,0.0,0.0,0.0,0.0,0.0,0,0.0,0.0,0.0,0.0,0.0
169,9,3.0399826999928337,3,True,0.5,acc,right,False,2,1,6,ret,1,10,0,"['2', '2', '1', '2', '4', '3']","[45.336718200007454, 45.67278790001001, 45.968824499999755, 47.63272870000219, 48.07275050001044, 48.37670090000029]",7,6,# # # # # #,None,45.336718200007454,45.67278790001001,45.968824499999755,47.63272870000219,48.07275050001044,48.37670090000029,0.5800234000053024,0.3360697000025539,0.29603659998974763,1.6639042000024347,0.4400218000082532,0.3039503999898443
170,10,0.0,2,False,0.0,None,right,False,2,1,0,enc,0,0,0,[],[],7,6,4 4 3 4 3 3,4,0.0,0.0,0.0,0.0,0.0,0.0,0,0.0,0.0,0.0,0.0,0.0
171,11,4.767863299988676,2,True,0.5,acc,right,True,2,1,5,ret,1,5,0,"['3', '3', '4', '3', '4', '3']","[58.1927035000117, 58.576713200003724, 60.697245100003784, 61.05657540001266, 62.624728399998276, 62.96056680000038]",7,6,# # # # # #,None,58.1927035000117,58.576713200003724,60.697245100003784,61.05657540001266,62.624728399998276,62.96056680000038,3.316002600011416,0.3840096999920206,2.12053190000006,0.3593303000088781,1.5681529999856139,0.3358384000021033
172,12,0.0,2,False,0.0,None,right,False,2,1,0,enc,0,0,0,[],[],7,6,4 1 4 1 4 2,4,0.0,0.0,0.0,0.0,0.0,0.0,0,0.0,0.0,0.0,0.0,0.0
173,13,3.839931299997261,2,True,0.5,acc,right,False,2,1,6,ret,1,10,0,"['2', '4', '1', '4', '1', '4']","[71.74469570000656, 72.20068200000969, 73.98469230000046, 74.89666460000444, 75.27267590000702, 75.58462700000382]",7,6,# # # # # #,None,71.74469570000656,72.20068200000969,73.98469230000046,74.89666460000444,75.27267590000702,75.58462700000382,2.2841289000061806,0.4559863000031328,1.7840102999907685,0.9119723000039812,0.376011300002574,0.31195109999680426
174,14,0.0,3,False,0.0,None,right,False,2,1,0,enc,0,0,1,[],[],7,6,2 1 4 3 1 2,6,0.0,0.0,0.0,0.0,0.0,0.0,0,0.0,0.0,0.0,0.0,0.0
175,15,2.480677999992622,3,True,0.5,acc,right,False,2,1,6,ret,1,10,1,"['2', '1', '4', '3', '1', '2']","[83.88065040000947, 84.35276750000776, 84.63258620000852, 85.88068050000584, 86.1767780000082, 86.3613284000021]",7,6,# # # # # #,None,83.88065040000947,84.35276750000776,84.63258620000852,85.88068050000584,86.1767780000082,86.3613284000021,1.7960234000056516,0.472117099998286,0.27981870000076015,1.2480942999973195,0.2960975000023609,0.18455039999389555
176,16,0.0,2,False,0.0,None,right,False,2,1,0,enc,0,0,0,[],[],7,6,4 4 4 2 4 2,4,0.0,0.0,0.0,0.0,0.0,0.0,0,0.0,0.0,0.0,0.0,0.0
177,17,1.9120883000141475,2,True,0.5,acc,right,False,2,1,6,ret,1,10,0,"['2', '4', '2', '4', '4', '4']","[95.00862639999832, 95.3845994000003, 95.7846719000081, 96.32878870000422, 96.62468060001265, 96.92071470001247]",7,6,# # # # # #,None,95.00862639999832,95.3845994000003,95.7846719000081,96.32878870000422,96.62468060001265,96.92071470001247,2.1472979999962263,0.3759730000019772,0.40007250000780914,0.5441167999961181,0.2958919000084279,0.2960340999998152
178,18,0.0,3,False,0.0,None,right,False,2,1,0,enc,0,0,0,[],[],7,6,3 1 4 4 2 4,6,0.0,0.0,0.0,0.0,0.0,0.0,0,0.0,0.0,0.0,0.0,0.0
179,19,2.9118653999903463,3,True,0.5,acc,right,False,2,1,6,ret,1,10,0,"['4', '2', '4', '4', '1', '3']","[106.30470040001092, 106.63272940000752, 106.97664370000712, 108.72846990000107, 109.00059480000346, 109.21656580000126]",7,6,# # # # # #,None,106.30470040001092,106.63272940000752,106.97664370000712,108.72846990000107,109.00059480000346,109.21656580000126,2.8839856999984477,0.3280289999966044,0.34391429999959655,1.7518261999939568,0.27212490000238176,0.21597099999780767
180,20,0.0,3,False,0.0,None,right,False,2,1,0,enc,0,0,0,[],[],7,6,1 4 2 2 3 4,6,0.0,0.0,0.0,0.0,0.0,0.0,0,0.0,0.0,0.0,0.0,0.0
181,21,2.6960351000016085,3,True,0.5,acc,right,False,2,1,6,ret,1,10,0,"['4', '3', '2', '2', '4', '1']","[116.08860180000192, 116.3685603000049, 116.68873080000049, 118.23262730000715, 118.52875490000588, 118.78463690000353]",7,6,# # # # # #,None,116.08860180000192,116.3685603000049,116.68873080000049,118.23262730000715,118.52875490000588,118.78463690000353,0.37203600000066217,0.2799585000029765,0.32017049999558367,1.5438965000066673,0.2961275999987265,0.25588199999765493
182,22,0.0,2,False,0.0,None,right,False,2,1,0,enc,0,0,1,[],[],7,6,1 1 2 1 1 3,4,0.0,0.0,0.0,0.0,0.0,0.0,0,0.0,0.0,0.0,0.0,0.0
183,23,1.912052100000437,2,True,0.5,acc,right,False,2,1,6,ret,1,10,1,"['1', '1', '2', '1', '1', '3']","[127.42462289999821, 127.67269740000484, 128.41657940000005, 128.72060590000183, 129.09657290000177, 129.33667499999865]",7,6,# # # # # #,None,127.42462289999821,127.67269740000484,128.41657940000005,128.72060590000183,129.09657290000177,129.33667499999865,2.1399859999946784,0.24807450000662357,0.7438819999952102,0.30402650000178255,0.375966999999946,0.24010209999687504
184,0,0.0,2,False,0.0,None,right,False,2,1,0,enc,0,0,1,[],[],8,6,4 2 3 2 2 2,4,0.0,0.0,0.0,0.0,0.0,0.0,0,0.0,0.0,0.0,0.0,0.0
185,1,1.6479341999947792,2,True,0.5,acc,right,True,2,1,5,ret,1,5,1,"['4', '2', '3', '2', '3', '2']","[7.160596700006863, 7.56045110001287, 7.888494200000423, 8.20053500001086, 8.264502500009257, 8.808530900001642]",8,6,# # # # # #,None,7.160596700006863,7.56045110001287,7.888494200000423,8.20053500001086,8.264502500009257,8.808530900001642,NaN,0.39985440000600647,0.32804309998755343,0.3120408000104362,0.06396749999839813,0.544028399992385
186,2,0.0,2,False,0.0,None,right,False,2,1,0,enc,0,0,1,[],[],8,6,1 1 1 3 1 4,4,0.0,0.0,0.0,0.0,0.0,0.0,0,0.0,0.0,0.0,0.0,0.0
187,3,12.391716300000551,2,True,0.5,acc,right,True,2,1,2,ret,1,2,1,"['2', '1', '1', '1', '4', '3']","[10.352808900002856, 18.576589000003878, 19.888566800000262, 20.34461580000061, 22.45653590001166, 22.74452520000341]",8,6,# # # # # #,None,10.352808900002856,18.576589000003878,19.888566800000262,20.34461580000061,22.45653590001166,22.74452520000341,-4.9557219999987865,8.223780100001022,1.3119777999963844,0.4560490000003483,2.111920100011048,0.28798929999175016
188,4,0.0,2,False,0.0,None,right,False,2,1,0,enc,0,0,0,[],[],8,6,2 1 2 1 3 4,4,0.0,0.0,0.0,0.0,0.0,0.0,0,0.0,0.0,0.0,0.0,0.0
189,5,1.631930999996257,2,True,0.5,acc,right,False,2,1,6,ret,1,10,0,"['4', '3', '1', '2', '1', '2']","[32.07265260000713, 32.52051770000253, 32.88850520001142, 33.1605741000094, 33.46467710001161, 33.70458360000339]",8,6,# # # # # #,None,32.07265260000713,32.52051770000253,32.88850520001142,33.1605741000094,33.46467710001161,33.70458360000339,2.828127400003723,0.44786509999539703,0.36798750000889413,0.2720688999979757,0.3041030000022147,0.2399064999917755
190,6,0.0,2,False,0.0,None,right,False,2,1,0,enc,0,0,1,[],[],8,6,1 3 1 4 2 3,4,0.0,0.0,0.0,0.0,0.0,0.0,0,0.0,0.0,0.0,0.0,0.0
191,7,2.4160638000030303,2,True,0.5,acc,right,False,2,1,6,ret,1,10,1,"['1', '3', '1', '4', '2', '3']","[42.65655460000562, 42.936579700006405, 43.3525312999991, 44.216425800012075, 44.70455760000914, 45.07261840000865]",8,6,# # # # # #,None,42.65655460000562,42.936579700006405,43.3525312999991,44.216425800012075,44.70455760000914,45.07261840000865,2.4519710000022314,0.28002510000078473,0.41595159999269526,0.8638945000129752,0.48813179999706335,0.3680607999995118
192,8,0.0,3,False,0.0,None,right,False,2,1,0,enc,0,0,1,[],[],8,6,1 4 3 3 2 2,6,0.0,0.0,0.0,0.0,0.0,0.0,0,0.0,0.0,0.0,0.0,0.0
193,9,1.6321166999987329,3,True,0.5,acc,right,False,2,1,6,ret,1,10,1,"['1', '4', '3', '3', '2', '2']","[51.96848660000251, 52.32851020000817, 52.65646110000671, 53.10440790001303, 53.39252100000158, 53.60060330000124]",8,6,# # # # # #,None,51.96848660000251,52.32851020000817,52.65646110000671,53.10440790001303,53.39252100000158,53.60060330000124,0.39586819999385625,0.36002360000566114,0.327950899998541,0.4479468000063207,0.28811309998854995,0.20808229999965988
194,10,0.0,2,False,0.0,None,right,False,2,1,0,enc,0,0,0,[],[],8,6,4 3 3 4 4 1,4,0.0,0.0,0.0,0.0,0.0,0.0,0,0.0,0.0,0.0,0.0,0.0
195,11,3.127947300003143,2,True,0.5,acc,right,True,2,1,4,ret,1,4,0,"['1', '4', '4', '3', '4', '1']","[62.928601999999955, 63.38445040000079, 64.82448690000456, 65.19248840000364, 65.77654160000384, 66.0565493000031]",8,6,# # # # # #,None,62.928601999999955,63.38445040000079,64.82448690000456,65.19248840000364,65.77654160000384,66.0565493000031,2.827998699998716,0.45584840000083204,1.440036500003771,0.3680014999990817,0.5840532000001986,0.2800076999992598
196,12,0.0,2,False,0.0,None,right,False,2,1,0,enc,0,0,0,[],[],8,6,3 1 3 2 4 2,4,0.0,0.0,0.0,0.0,0.0,0.0,0,0.0,0.0,0.0,0.0,0.0
197,13,3.311941100007971,2,True,0.5,acc,right,False,2,1,6,ret,1,10,0,"['2', '4', '2', '3', '1', '3']","[75.92046860000119, 76.33657940001285, 77.80049230001168, 78.08053430001019, 78.96851250001055, 79.23240970000916]",8,6,# # # # # #,None,75.92046860000119,76.33657940001285,77.80049230001168,78.08053430001019,78.96851250001055,79.23240970000916,3.363919299998088,0.41611080001166556,1.4639128999988316,0.28004199999850243,0.8879782000003615,0.2638971999986097
198,14,0.0,3,False,0.0,None,right,False,2,1,0,enc,0,0,1,[],[],8,6,1 3 2 3 3 3,6,0.0,0.0,0.0,0.0,0.0,0.0,0,0.0,0.0,0.0,0.0,0.0
199,15,1.7998544000001857,3,True,0.5,acc,right,False,2,1,6,ret,1,10,1,"['1', '3', '2', '3', '3', '3']","[85.77655160000722, 86.10451900000044, 86.52047020000464, 86.86440350000339, 87.22443450000719, 87.57640600000741]",8,6,# # # # # #,None,85.77655160000722,86.10451900000044,86.52047020000464,86.86440350000339,87.22443450000719,87.57640600000741,0.04414189999806695,0.3279673999932129,0.4159512000042014,0.3439332999987528,0.3600310000038007,0.35197150000021793
200,16,0.0,3,False,0.0,None,right,False,2,1,0,enc,0,0,1,[],[],8,6,4 2 4 4 2 4,6,0.0,0.0,0.0,0.0,0.0,0.0,0,0.0,0.0,0.0,0.0,0.0
201,17,1.8239269000041527,3,True,0.5,acc,right,False,2,1,6,ret,1,10,1,"['4', '2', '4', '4', '2', '4']","[94.86449400000856, 95.32040060000145, 95.67222940000647, 96.00836200000776, 96.38444750000781, 96.68842090001272]",8,6,# # # # # #,None,94.86449400000856,95.32040060000145,95.67222940000647,96.00836200000776,96.38444750000781,96.68842090001272,0.788088000001153,0.4559065999928862,0.35182880000502337,0.3361326000012923,0.3760855000000447,0.3039734000049066
202,18,0.0,3,False,0.0,None,right,False,2,1,0,enc,0,0,0,[],[],8,6,1 2 2 3 1 1,6,0.0,0.0,0.0,0.0,0.0,0.0,0,0.0,0.0,0.0,0.0,0.0
203,19,1.6479123000026448,3,True,0.5,acc,right,False,2,1,6,ret,1,10,0,"['1', '1', '3', '2', '2', '1']","[102.9525272000028, 103.25639690000389, 103.67249979999906, 104.12044220000098, 104.32862620000378, 104.60043950000545]",8,6,# # # # # #,None,102.9525272000028,103.25639690000389,103.67249979999906,104.12044220000098,104.32862620000378,104.60043950000545,-0.2358937000099104,0.30386970000108704,0.4161028999951668,0.44794240000192076,0.20818400000280235,0.2718133000016678
204,20,0.0,3,False,0.0,None,right,False,2,1,0,enc,0,0,0,[],[],8,6,2 3 1 1 3 4,6,0.0,0.0,0.0,0.0,0.0,0.0,0,0.0,0.0,0.0,0.0,0.0
205,21,2.039865999991889,3,True,0.5,acc,right,True,2,1,4,ret,1,4,0,"['4', '3', '1', '3', '1', '2']","[111.88051640000776, 112.47240460000467, 112.90439410001272, 113.49643290000677, 113.760374400008, 113.92038239999965]",8,6,# # # # # #,None,111.88051640000776,112.47240460000467,112.90439410001272,113.49643290000677,113.760374400008,113.92038239999965,0.7800769000023138,0.5918881999969017,0.4319895000080578,0.5920387999940431,0.2639415000012377,0.16000799999164883
206,22,0.0,3,False,0.0,None,right,False,2,1,0,enc,0,0,0,[],[],8,6,4 3 2 2 1 3,6,0.0,0.0,0.0,0.0,0.0,0.0,0,0.0,0.0,0.0,0.0,0.0
207,23,2.8720606999995653,3,True,0.5,acc,right,False,2,1,6,ret,1,10,0,"['3', '1', '2', '2', '3', '4']","[120.70429100000183, 121.27240290000918, 121.7603708000097, 123.05646350000461, 123.28846830000111, 123.5763517000014]",8,6,# # # # # #,None,120.70429100000183,121.27240290000918,121.7603708000097,123.05646350000461,123.28846830000111,123.5763517000014,0.283908600002178,0.5681119000073522,0.4879679000005126,1.2960926999949152,0.2320047999965027,0.28788340000028256
