,MT,Unnamed: 0,Unnamed: 0.1,Unnamed: 0.1.1,Unnamed: 0.1.1.1,Unnamed: 0.1.1.1.1,Unnamed: 0.1.1.1.1.1,Unnamed: 0.1.1.1.1.1.1,Unnamed: 0.1.1.1.1.1.1.1,Unnamed: 0.1.1.1.1.1.1.1.1,chunk,display_trial_feedback,feedback_dur,feedback_type,hand,is_error,item_dur,iti_dur,number_correct,phase,phase_type,points,recall_dir,response,response_time,run_number,seq_length,seq_str,trial_dur
0,0.0,0,0.0,0.0,0.0,0.0,0.0,0.0,0.0,0.0,3,False,0.0,None,right,False,2,1,0,enc,0,0,1,[],[],1,6,2 2 2 4 4 3,6
1,4.119733800005633,1,1.0,1.0,1.0,1.0,1.0,1.0,1.0,1.0,3,True,0.5,acc,right,False,2,1,6,ret,1,10,1,"['2', '2', '2', '4', '4', '3']","[6.916036800001166, 7.347846400007256, 7.739784100005636, 10.179761100007454, 10.667737900002976, 11.0357706000068]",1,6,# # # # # #,None
2,0.0,2,2.0,2.0,2.0,2.0,2.0,2.0,2.0,2.0,3,False,0.0,None,right,False,2,1,0,enc,0,0,1,[],[],1,6,1 3 1 3 1 2,6
3,2.8076743999990867,3,3.0,3.0,3.0,3.0,3.0,3.0,3.0,3.0,3,True,0.5,acc,right,False,2,1,6,ret,1,10,1,"['1', '3', '1', '3', '1', '2']","[18.204226900008507, 18.65997070001322, 19.06804280000506, 20.339883400010876, 20.691829000003054, 21.011901300007594]",1,6,# # # # # #,None
4,0.0,4,4.0,4.0,4.0,4.0,4.0,4.0,4.0,4.0,3,False,0.0,None,right,False,2,1,0,enc,0,0,0,[],[],1,6,4 1 4 3 4 3,6
5,3.0160259999975096,5,5.0,5.0,5.0,5.0,5.0,5.0,5.0,5.0,3,True,0.5,acc,right,False,2,1,6,ret,1,10,0,"['3', '4', '3', '4', '1', '4']","[28.427767400004086, 28.76378740000655, 29.53975550000905, 30.667757200004417, 31.08376040001167, 31.443793400001596]",1,6,# # # # # #,None
6,0.0,6,6.0,6.0,6.0,6.0,6.0,6.0,6.0,6.0,2,False,0.0,None,right,False,2,1,0,enc,0,0,1,[],[],1,6,4 3 4 1 4 4,4
7,2.9282129000057457,7,7.0,7.0,7.0,7.0,7.0,7.0,7.0,7.0,2,True,0.5,acc,right,True,2,1,4,ret,1,4,1,"['4', '2', '2', '1', '4', '4']","[41.099506600003224, 41.70764770000824, 42.26781520000077, 42.7077130000107, 43.62767130001157, 44.02771950000897]",1,6,# # # # # #,None
8,0.0,8,8.0,8.0,8.0,8.0,8.0,8.0,8.0,8.0,2,False,0.0,None,right,False,2,1,0,enc,0,0,0,[],[],1,6,4 1 3 3 1 4,4
9,2.6398290999932206,9,9.0,9.0,9.0,9.0,9.0,9.0,9.0,9.0,2,True,0.5,acc,right,True,2,1,4,ret,1,4,0,"['4', '1', '3', '3', '4', '1']","[53.83570220001275, 54.26778470000136, 54.69175310000719, 55.075720900000306, 56.07567640001071, 56.47553130000597]",1,6,# # # # # #,None
10,0.0,10,10.0,10.0,10.0,10.0,10.0,10.0,10.0,10.0,2,False,0.0,None,right,False,2,1,0,enc,0,0,0,[],[],1,6,1 3 4 2 2 2,4
11,2.839793899998768,11,11.0,11.0,11.0,11.0,11.0,11.0,11.0,11.0,2,True,0.5,acc,right,False,2,1,6,ret,1,10,0,"['2', '2', '2', '4', '3', '1']","[66.30792700000165, 66.73969530001341, 67.62747770000715, 68.05965580001066, 68.74771940000937, 69.14772090000042]",1,6,# # # # # #,None
12,0.0,12,12.0,12.0,12.0,12.0,12.0,12.0,12.0,12.0,3,False,0.0,None,right,False,2,1,0,enc,0,0,0,[],[],1,6,4 1 1 1 4 3,6
13,4.024067200007266,13,13.0,13.0,13.0,13.0,13.0,13.0,13.0,13.0,3,True,0.5,acc,right,True,2,1,4,ret,1,4,0,"['3', '4', '1', '3', '1', '1']","[76.35561800000141, 78.01160610000079, 78.58764170001086, 79.67569480001112, 80.02760510001099, 80.37968520000868]",1,6,# # # # # #,None
14,0.0,14,14.0,14.0,14.0,14.0,14.0,14.0,14.0,14.0,2,False,0.0,None,right,False,2,1,0,enc,0,0,1,[],[],1,6,1 2 3 4 3 1,4
15,2.600132500010659,15,15.0,15.0,15.0,15.0,15.0,15.0,15.0,15.0,2,True,0.5,acc,right,False,2,1,6,ret,1,10,1,"['1', '2', '3', '4', '3', '1']","[88.9635460999998, 89.40377240000817, 90.11567400000058, 90.6036957000033, 91.13171480000892, 91.56367860001046]",1,6,# # # # # #,None
16,0.0,16,16.0,16.0,16.0,16.0,16.0,0.0,0.0,,3,False,0.0,None,right,False,2,1,0,enc,0,0,1,[],[],1,6,4 2 2 1 1 2,6
17,3.4000550000055227,17,17.0,17.0,17.0,17.0,17.0,1.0,1.0,,3,True,0.5,acc,right,True,2,1,5,ret,1,5,1,"['3', '2', '2', '1', '1', '2']","[5.265614599993569, 6.705786100006662, 7.025730399996974, 7.721706900003483, 8.089731400003075, 8.665669599999092]",1,6,# # # # # #,None
18,0.0,18,18.0,18.0,18.0,18.0,18.0,2.0,2.0,,3,False,0.0,None,right,False,2,1,0,enc,0,0,1,[],[],1,6,3 3 2 2 3 3,6
19,2.624097099993378,19,19.0,19.0,19.0,19.0,19.0,3.0,3.0,,3,True,0.5,acc,right,False,2,1,6,ret,1,10,1,"['3', '3', '2', '2', '3', '3']","[15.793565600004513, 16.24965670000529, 16.713569800005644, 17.56965190000483, 17.953817600006005, 18.41766269999789]",1,6,# # # # # #,None
20,0.0,20,20.0,20.0,20.0,20.0,20.0,4.0,4.0,,2,False,0.0,None,right,False,2,1,0,enc,0,0,0,[],[],1,6,1 4 4 2 2 1,4
21,6.93598710000515,21,21.0,21.0,21.0,21.0,21.0,5.0,5.0,,2,True,0.5,acc,right,True,2,1,4,ret,1,4,0,"['1', '2', '2', '4', '1', '2']","[29.54567789999419, 29.993697700003395, 31.5457180999947, 32.15373979999276, 36.153599099998246, 36.48166499999934]",1,6,# # # # # #,None
22,0.0,22,22.0,22.0,22.0,22.0,22.0,6.0,6.0,,3,False,0.0,None,right,False,2,1,0,enc,0,0,0,[],[],1,6,2 3 3 2 4 1,6
23,4.19198889999825,23,23.0,23.0,23.0,23.0,23.0,7.0,7.0,,3,True,0.5,acc,right,False,2,1,6,ret,1,10,0,"['1', '4', '2', '3', '3', '2']","[44.28969930000312, 46.14567779999925, 46.689596500000334, 47.537704899994424, 47.92167569999583, 48.48168820000137]",1,6,# # # # # #,None
24,0.0,24,24.0,24.0,24.0,24.0,24.0,8.0,8.0,,2,False,0.0,None,right,False,2,1,0,enc,0,0,0,[],[],1,6,4 3 2 1 3 4,4
25,5.320131100001163,25,25.0,25.0,25.0,25.0,25.0,9.0,9.0,,2,True,0.5,acc,right,False,2,1,6,ret,1,10,0,"['4', '3', '1', '2', '3', '4']","[57.67357309999352, 58.145593099994585, 59.86023750000459, 60.28954939999676, 62.5937108000071, 62.99370419999468]",1,6,# # # # # #,None
26,0.0,26,26.0,26.0,26.0,26.0,26.0,10.0,10.0,,2,False,0.0,None,right,False,2,1,0,enc,0,0,1,[],[],1,6,4 3 3 1 1 2,4
27,5.2398628999944785,27,27.0,27.0,27.0,27.0,27.0,11.0,11.0,,2,True,0.5,acc,right,True,2,1,4,ret,1,4,1,"['4', '3', '2', '1', '4', '2']","[72.2176310000068, 72.79370330000529, 74.85753809999733, 75.23419259999355, 77.10559380000632, 77.45749390000128]",1,6,# # # # # #,None
28,0.0,28,28.0,28.0,28.0,28.0,28.0,12.0,12.0,,3,False,0.0,None,right,False,2,1,0,enc,0,0,0,[],[],1,6,2 3 4 2 2 1,6
29,4.0800805000035325,29,29.0,29.0,29.0,29.0,29.0,13.0,13.0,,3,True,0.5,acc,right,False,2,1,6,ret,1,10,0,"['1', '2', '2', '4', '3', '2']","[84.0094689999969, 84.99363320000703, 85.40148109999427, 87.1135765999934, 87.68155500000285, 88.08954950000043]",1,6,# # # # # #,None
30,0.0,30,30.0,30.0,30.0,30.0,30.0,14.0,14.0,,2,False,0.0,None,right,False,2,1,0,enc,0,0,1,[],[],1,6,4 2 3 4 2 1,4
31,2.2718788000056516,31,31.0,31.0,31.0,31.0,31.0,15.0,15.0,,2,True,0.5,acc,right,False,2,1,6,ret,1,10,1,"['4', '2', '3', '4', '2', '1']","[97.52959289999853, 97.97750209999504, 98.45757699999376, 98.92159759999777, 99.47357889999694, 99.80147170000419]",1,6,# # # # # #,None
32,0.0,32,32.0,32.0,32.0,32.0,32.0,16.0,16.0,,2,False,0.0,None,right,False,2,1,0,enc,0,0,1,[],[],1,6,1 4 1 3 2 4,4
33,5.312041799988948,33,33.0,33.0,33.0,33.0,33.0,17.0,17.0,,2,True,0.5,acc,right,True,2,1,0,ret,1,0,1,"['3', '1', '4', '1', '4', '2']","[110.02556910000567, 110.44152690000192, 113.02535969999735, 113.48150870000245, 114.85749929999292, 115.33761089999462]",1,6,# # # # # #,None
34,0.0,34,34.0,34.0,34.0,34.0,34.0,18.0,18.0,,3,False,0.0,None,right,False,2,1,0,enc,0,0,0,[],[],1,6,2 3 3 3 3 4,6
35,2.8640077000018214,35,35.0,35.0,35.0,35.0,35.0,19.0,19.0,,3,True,0.5,acc,right,False,2,1,6,ret,1,10,0,"['4', '3', '3', '3', '3', '2']","[122.68154809999396, 123.20150729999295, 123.67346799999359, 124.51357189999544, 125.04134710000653, 125.54555579999578]",1,6,# # # # # #,None
36,0.0,36,36.0,36.0,36.0,36.0,36.0,20.0,20.0,,3,False,0.0,None,right,False,2,1,0,enc,0,0,1,[],[],1,6,1 1 3 2 2 4,6
37,1.864269500001684,37,37.0,37.0,37.0,37.0,37.0,21.0,21.0,,3,True,0.5,acc,right,False,2,1,6,ret,1,10,1,"['1', '1', '3', '2', '2', '4']","[132.28944429999683, 132.63345690000278, 133.02523339999607, 133.4414880999975, 133.74541230000614, 134.1537137999985]",1,6,# # # # # #,None
38,0.0,38,38.0,38.0,38.0,38.0,38.0,22.0,22.0,,2,False,0.0,None,right,False,2,1,0,enc,0,0,0,[],[],1,6,4 1 1 1 4 4,4
39,2.4716696000105003,39,39.0,39.0,39.0,39.0,39.0,23.0,23.0,,2,True,0.5,acc,right,False,2,1,6,ret,1,10,0,"['4', '4', '1', '1', '1', '4']","[142.39383099999395, 142.78535449999617, 143.40152689999377, 143.6814924000064, 144.02526789999683, 144.86550060000445]",1,6,# # # # # #,None
40,0.0,40,40.0,40.0,40.0,40.0,0.0,0.0,,,3,False,0.0,None,right,False,2,1,0,enc,0,0,1,[],[],2,6,3 2 2 3 2 3,6
41,1.504232499995851,41,41.0,41.0,41.0,41.0,1.0,1.0,,,3,True,0.5,acc,right,False,2,1,6,ret,1,10,1,"['3', '2', '2', '3', '2', '3']","[5.4074093000090215, 5.7594566000043415, 6.015456599998288, 6.3433411000005435, 6.663470200001029, 6.9116418000048725]",2,6,# # # # # #,None
42,0.0,42,42.0,42.0,42.0,42.0,2.0,2.0,,,2,False,0.0,None,right,False,2,1,0,enc,0,0,1,[],[],2,6,2 4 4 4 4 1,4
43,1.9280646999977757,43,43.0,43.0,43.0,43.0,3.0,3.0,,,2,True,0.5,acc,right,False,2,1,6,ret,1,10,1,"['2', '4', '4', '4', '4', '1']","[16.471371100007673, 16.943363300000783, 17.287347400008002, 17.66338050000195, 18.02344129999983, 18.39943580000545]",2,6,# # # # # #,None
44,0.0,44,44.0,44.0,44.0,44.0,4.0,4.0,,,3,False,0.0,None,right,False,2,1,0,enc,0,0,1,[],[],2,6,1 4 1 4 4 3,6
45,5.608013299992309,45,45.0,45.0,45.0,45.0,5.0,5.0,,,3,True,0.5,acc,right,True,2,1,3,ret,1,3,1,"['1', '1', '4', '1', '4', '3']","[25.503366700009792, 25.887351900004433, 25.943364200007636, 27.087311399998725, 30.167479299998377, 31.1113800000021]",2,6,# # # # # #,None
46,0.0,46,46.0,46.0,46.0,46.0,6.0,6.0,,,3,False,0.0,None,right,False,2,1,0,enc,0,0,0,[],[],2,6,1 3 1 3 1 3,6
47,3.568010000002687,47,47.0,47.0,47.0,47.0,7.0,7.0,,,3,True,0.5,acc,right,True,2,1,5,ret,1,5,0,"['3', '1', '3', '3', '3', '1']","[37.74329250000301, 38.10334080000757, 38.51144430000568, 39.199513300001854, 40.94335590000264, 41.311302500005695]",2,6,# # # # # #,None
48,0.0,48,48.0,48.0,48.0,48.0,8.0,8.0,,,2,False,0.0,None,right,False,2,1,0,enc,0,0,0,[],[],2,6,2 1 4 4 4 2,4
49,3.928491499988013,49,49.0,49.0,49.0,49.0,9.0,9.0,,,2,True,0.5,acc,right,True,2,1,4,ret,1,4,0,"['2', '4', '4', '4', '2', '1']","[50.271328900009394, 50.85515590000432, 51.40729360000114, 51.91930590000993, 53.84732329999679, 54.19982039999741]",2,6,# # # # # #,None
50,0.0,50,50.0,50.0,50.0,50.0,10.0,10.0,,,3,False,0.0,None,right,False,2,1,0,enc,0,0,0,[],[],2,6,3 3 4 1 2 3,6
51,4.056026499994913,51,51.0,51.0,51.0,51.0,11.0,11.0,,,3,True,0.5,acc,right,True,2,1,5,ret,1,5,0,"['3', '2', '1', '4', '4', '3']","[61.09532510000281, 61.39944010000909, 61.79928010000731, 63.03936510000494, 64.11937290000787, 65.15135159999772]",2,6,# # # # # #,None
52,0.0,52,52.0,52.0,52.0,52.0,12.0,12.0,,,2,False,0.0,None,right,False,2,1,0,enc,0,0,0,[],[],2,6,4 2 2 2 3 1,4
53,3.687956699999632,53,53.0,53.0,53.0,53.0,13.0,13.0,,,2,True,0.5,acc,right,False,2,1,6,ret,1,10,0,"['1', '3', '2', '2', '2', '4']","[73.56731640000362, 74.2313187999971, 75.59909220000554, 75.97510170000896, 76.40730459999759, 77.25527310000325]",2,6,# # # # # #,None
54,0.0,54,54.0,54.0,54.0,54.0,14.0,14.0,,,3,False,0.0,None,right,False,2,1,0,enc,0,0,1,[],[],2,6,3 2 2 1 1 4,6
55,2.2479569999995874,55,55.0,55.0,55.0,55.0,15.0,15.0,,,3,True,0.5,acc,right,False,2,1,6,ret,1,10,1,"['3', '2', '2', '1', '1', '4']","[85.08729320000566, 85.5272413000057, 85.89527090000047, 86.29524880000099, 86.67128960000991, 87.33525020000525]",2,6,# # # # # #,None
56,0.0,56,56.0,56.0,56.0,56.0,16.0,16.0,,,2,False,0.0,None,right,False,2,1,0,enc,0,0,0,[],[],2,6,4 3 2 1 2 2,4
57,2.015981800010195,57,57.0,57.0,57.0,57.0,17.0,17.0,,,2,True,0.5,acc,right,False,2,1,6,ret,1,10,0,"['2', '2', '1', '2', '3', '4']","[96.17528820000007, 96.59119140000257, 96.99123650000547, 97.31927690000157, 97.69519650000439, 98.19127000001026]",2,6,# # # # # #,None
58,0.0,58,58.0,58.0,58.0,58.0,18.0,18.0,,,2,False,0.0,None,right,False,2,1,0,enc,0,0,1,[],[],2,6,3 1 4 4 2 3,4
59,2.064092700005858,59,59.0,59.0,59.0,59.0,19.0,19.0,,,2,True,0.5,acc,right,False,2,1,6,ret,1,10,1,"['3', '1', '4', '4', '2', '3']","[108.29521450000175, 108.6952164000104, 109.19120130001102, 109.55119399999967, 110.07131720001053, 110.3593072000076]",2,6,# # # # # #,None
60,0.0,60,60.0,60.0,60.0,60.0,20.0,20.0,,,3,False,0.0,None,right,False,2,1,0,enc,0,0,0,[],[],2,6,1 1 4 4 3 2,6
61,2.1120255999994697,61,61.0,61.0,61.0,61.0,21.0,21.0,,,3,True,0.5,acc,right,False,2,1,6,ret,1,10,0,"['2', '3', '4', '4', '1', '1']","[118.57521370000904, 118.9591475000052, 119.52720650000265, 119.88725150001119, 120.34323670000595, 120.68723930000851]",2,6,# # # # # #,None
62,0.0,62,62.0,62.0,62.0,62.0,22.0,22.0,,,2,False,0.0,None,right,False,2,1,0,enc,0,0,1,[],[],2,6,4 2 1 2 4 1,4
63,4.9118917000014335,63,63.0,63.0,63.0,63.0,23.0,23.0,,,2,True,0.5,acc,right,True,2,1,5,ret,1,5,1,"['3', '2', '1', '2', '4', '1']","[129.95125749999715, 131.32718680000107, 132.00725900000543, 132.44720490000327, 134.50317789999826, 134.8631491999986]",2,6,# # # # # #,None
64,0.0,64,64.0,64.0,64.0,0.0,0.0,,,,2,False,0.0,None,right,False,2,1,0,enc,0,0,1,[],[],3,6,1 3 3 1 2 3,4
65,18.618691700001364,65,65.0,65.0,65.0,1.0,1.0,,,,2,True,0.5,acc,right,True,2,1,2,ret,1,2,1,"['m', '1', '1', '3', '2', '3']","[-5.38041460000386, 8.766262399993138, 11.53412820000085, 11.8462642999948, 12.982303500000853, 13.238277099997504]",3,6,# # # # # #,None
66,0.0,66,66.0,66.0,66.0,2.0,2.0,,,,3,False,0.0,None,right,False,2,1,0,enc,0,0,0,[],[],3,6,2 3 1 2 2 1,6
67,2.264073799990001,67,67.0,67.0,67.0,3.0,3.0,,,,3,True,0.5,acc,right,False,2,1,6,ret,1,10,0,"['1', '2', '2', '1', '3', '2']","[20.1422348000051, 20.670102499992936, 20.942307100005564, 21.926268700000946, 22.174281200001133, 22.4063085999951]",3,6,# # # # # #,None
68,0.0,68,68.0,68.0,68.0,4.0,4.0,,,,3,False,0.0,None,right,False,2,1,0,enc,0,0,1,[],[],3,6,4 1 3 2 2 1,6
69,1.4640738999878522,69,69.0,69.0,69.0,5.0,5.0,,,,3,True,0.5,acc,right,False,2,1,6,ret,1,10,1,"['4', '1', '3', '2', '2', '1']","[29.38206970000465, 29.702190199997858, 29.9901816000056, 30.40619510000397, 30.61402929999167, 30.8461435999925]",3,6,# # # # # #,None
70,0.0,70,70.0,70.0,70.0,6.0,6.0,,,,2,False,0.0,None,right,False,2,1,0,enc,0,0,0,[],[],3,6,3 4 4 3 4 1,4
71,5.648104299994882,71,71.0,71.0,71.0,7.0,7.0,,,,2,True,0.5,acc,right,True,2,1,5,ret,1,5,0,"['1', '4', '3', '4', '1', '3']","[39.61414170000353, 40.63024399999995, 42.102265499997884, 42.478302599993185, 45.03008270000282, 45.26224599999841]",3,6,# # # # # #,None
72,0.0,72,72.0,72.0,72.0,8.0,8.0,,,,3,False,0.0,None,right,False,2,1,0,enc,0,0,1,[],[],3,6,1 2 2 4 4 3,6
73,1.5679654000123264,73,73.0,73.0,73.0,9.0,9.0,,,,3,True,0.5,acc,right,False,2,1,6,ret,1,10,1,"['1', '2', '2', '4', '4', '3']","[51.80624399999215, 52.086682900000596, 52.30285350000486, 52.782246699993266, 53.062329799999134, 53.374209400004474]",3,6,# # # # # #,None
74,0.0,74,74.0,74.0,74.0,10.0,10.0,,,,2,False,0.0,None,right,False,2,1,0,enc,0,0,0,[],[],3,6,4 4 3 2 3 3,4
75,2.3679172999982256,75,75.0,75.0,75.0,11.0,11.0,,,,2,True,0.5,acc,right,False,2,1,6,ret,1,10,0,"['3', '3', '2', '3', '4', '4']","[61.958287200002815, 62.22211600000446, 63.48614890000317, 63.766233200003626, 64.07013690000167, 64.32620450000104]",3,6,# # # # # #,None
76,0.0,76,76.0,76.0,76.0,12.0,12.0,,,,3,False,0.0,None,right,False,2,1,0,enc,0,0,0,[],[],3,6,2 4 3 2 2 4,6
77,10.191930699991644,77,77.0,77.0,77.0,13.0,13.0,,,,3,True,0.5,acc,right,False,2,1,6,ret,1,10,0,"['4', '2', '2', '3', '4', '2']","[71.61413010000251, 71.96619989999454, 72.24602629999572, 80.97415209999599, 81.28625269999611, 81.80606079999416]",3,6,# # # # # #,None
78,0.0,78,78.0,78.0,78.0,14.0,14.0,,,,2,False,0.0,None,right,False,2,1,0,enc,0,0,0,[],[],3,6,2 3 4 4 1 2,4
79,2.2159465000004275,79,79.0,79.0,79.0,15.0,15.0,,,,2,True,0.5,acc,right,True,2,1,5,ret,1,5,0,"['2', '1', '4', '4', '4', '2']","[91.2460793999926, 91.70210579999548, 92.40619500000321, 92.70220810000319, 93.21414909999294, 93.46202589999302]",3,6,# # # # # #,None
80,0.0,80,80.0,80.0,80.0,16.0,16.0,,,,3,False,0.0,None,right,False,2,1,0,enc,0,0,1,[],[],3,6,2 1 1 2 4 1,6
81,1.86419749999186,81,81.0,81.0,81.0,17.0,17.0,,,,3,True,0.5,acc,right,False,2,1,6,ret,1,10,1,"['2', '1', '1', '2', '4', '1']","[100.30995690000418, 100.65396029999829, 100.85408029999235, 101.24606309999945, 101.71810919999552, 102.17415439999604]",3,6,# # # # # #,None
82,0.0,82,82.0,82.0,82.0,18.0,18.0,,,,3,False,0.0,None,right,False,2,1,0,enc,0,0,0,[],[],3,6,3 2 1 1 3 2,6
83,3.1601424999971632,83,83.0,83.0,83.0,19.0,19.0,,,,3,True,0.5,acc,right,False,2,1,6,ret,1,10,0,"['2', '3', '1', '1', '2', '3']","[109.54995640000561, 109.96608389999892, 110.46208990000014, 112.33406049999758, 112.52601400000276, 112.71009890000278]",3,6,# # # # # #,None
84,0.0,84,84.0,84.0,84.0,20.0,20.0,,,,2,False,0.0,None,right,False,2,1,0,enc,0,0,1,[],[],3,6,1 4 1 4 2 1,4
85,1.5039734000019962,85,85.0,85.0,85.0,21.0,21.0,,,,2,True,0.5,acc,right,False,2,1,6,ret,1,10,1,"['1', '4', '1', '4', '2', '1']","[121.32604899999569, 121.62186430000293, 122.0299931000045, 122.31004070000199, 122.59808070000145, 122.83002239999769]",3,6,# # # # # #,None
86,0.0,86,86.0,86.0,86.0,22.0,22.0,,,,2,False,0.0,None,right,False,2,1,0,enc,0,0,1,[],[],3,6,1 3 2 1 1 3,4
87,2.4558675999869592,87,87.0,87.0,87.0,23.0,23.0,,,,2,True,0.5,acc,right,False,2,1,6,ret,1,10,1,"['1', '3', '2', '1', '1', '3']","[131.4780499000044, 132.05403850000584, 132.93393830000423, 133.25415290000092, 133.6620738999918, 133.93391749999137]",3,6,# # # # # #,None
88,0.0,88,88.0,88.0,0.0,0.0,,,,,2,False,0.0,None,right,False,2,1,0,enc,0,0,1,[],[],4,6,4 4 1 3 2 2,4
89,1.8321143000066515,89,89.0,89.0,1.0,1.0,,,,,2,True,0.5,acc,right,False,2,1,6,ret,1,10,1,"['4', '4', '1', '3', '2', '2']","[7.0604927999957, 7.388491599995177, 8.020469800001592, 8.316347800006042, 8.628601000003982, 8.892607100002351]",4,6,# # # # # #,None
90,0.0,90,90.0,90.0,2.0,2.0,,,,,2,False,0.0,None,right,False,2,1,0,enc,0,0,0,[],[],4,6,3 2 1 3 4 3,4
91,4.960387200000696,91,91.0,91.0,3.0,3.0,,,,,2,True,0.5,acc,right,True,2,1,5,ret,1,5,0,"['3', '4', '3', '1', '2', '4']","[18.82053100000485, 19.180545499999425, 21.036479899994447, 21.436341799999354, 23.444550700005493, 23.780918200005544]",4,6,# # # # # #,None
92,0.0,92,92.0,92.0,4.0,4.0,,,,,3,False,0.0,None,right,False,2,1,0,enc,0,0,0,[],[],4,6,2 3 2 3 1 2,6
93,4.68800999999803,93,93.0,93.0,5.0,5.0,,,,,3,True,0.5,acc,right,True,2,1,3,ret,1,3,0,"['2', '1', '3', '3', '4', '3']","[31.284467999998014, 31.556437399995048, 31.820466899996973, 35.30045290000271, 35.67655000000377, 35.972477999996045]",4,6,# # # # # #,None
94,0.0,94,94.0,94.0,6.0,6.0,,,,,3,False,0.0,None,right,False,2,1,0,enc,0,0,1,[],[],4,6,4 4 4 2 2 1,6
95,2.3194468000001507,95,95.0,95.0,7.0,7.0,,,,,3,True,0.5,acc,right,False,2,1,6,ret,1,10,1,"['4', '4', '4', '2', '2', '1']","[42.8688805999991, 43.20435610000277, 43.5483649999951, 44.693385699996725, 44.91648250000435, 45.18832739999925]",4,6,# # # # # #,None
96,0.0,96,96.0,96.0,8.0,8.0,,,,,2,False,0.0,None,right,False,2,1,0,enc,0,0,1,[],[],4,6,3 1 4 3 4 1,4
97,2.496186200005468,97,97.0,97.0,9.0,9.0,,,,,2,True,0.5,acc,right,True,2,1,5,ret,1,5,1,"['3', '1', '4', '3', '3', '1']","[54.30031219999364, 54.70841419999488, 55.340471200004686, 55.76438839999901, 56.32441830000607, 56.79649839999911]",4,6,# # # # # #,None
98,0.0,98,98.0,98.0,10.0,10.0,,,,,3,False,0.0,None,right,False,2,1,0,enc,0,0,1,[],[],4,6,3 1 4 2 4 3,6
99,2.4719305999897188,99,99.0,99.0,11.0,11.0,,,,,3,True,0.5,acc,right,False,2,1,6,ret,1,10,1,"['3', '1', '4', '2', '4', '3']","[63.908417700004065, 64.26039029999811, 65.30830730000162, 65.70848760000081, 66.06846270000096, 66.38034829999378]",4,6,# # # # # #,None
100,0.0,100,100.0,100.0,12.0,12.0,,,,,2,False,0.0,None,right,False,2,1,0,enc,0,0,0,[],[],4,6,2 1 4 1 4 4,4
101,3.0960682000004454,101,101.0,101.0,13.0,13.0,,,,,2,True,0.5,acc,right,False,2,1,6,ret,1,10,0,"['4', '4', '1', '4', '1', '2']","[75.16428250000172, 75.59645369999635, 76.66051000000152, 77.1404007999954, 77.99634359999618, 78.26035070000216]",4,6,# # # # # #,None
102,0.0,102,102.0,102.0,14.0,14.0,,,,,3,False,0.0,None,right,False,2,1,0,enc,0,0,0,[],[],4,6,4 4 4 2 2 3,6
103,2.1038416999945184,103,103.0,103.0,15.0,15.0,,,,,3,True,0.5,acc,right,False,2,1,6,ret,1,10,0,"['3', '2', '2', '4', '4', '4']","[85.25236959999893, 85.65222810000705, 86.03635310000391, 86.46842560000368, 86.81236389999685, 87.35621129999345]",4,6,# # # # # #,None
104,0.0,104,104.0,104.0,16.0,16.0,,,,,2,False,0.0,None,right,False,2,1,0,enc,0,0,1,[],[],4,6,4 2 3 2 4 3,4
105,1.8959725000022445,105,105.0,105.0,17.0,17.0,,,,,2,True,0.5,acc,right,False,2,1,6,ret,1,10,1,"['4', '2', '3', '2', '4', '3']","[96.81243659999745, 97.16436930000782, 97.51635869999882, 97.92436600000656, 98.34058249999362, 98.7084090999997]",4,6,# # # # # #,None
106,0.0,106,106.0,106.0,18.0,18.0,,,,,2,False,0.0,None,right,False,2,1,0,enc,0,0,0,[],[],4,6,4 4 2 3 3 4,4
107,3.512200600001961,107,107.0,107.0,19.0,19.0,,,,,2,True,0.5,acc,right,False,2,1,6,ret,1,10,0,"['4', '3', '3', '2', '4', '4']","[108.30831049999688, 108.9083982000011, 110.02838220000558, 110.39631850000296, 111.42848139999842, 111.82051109999884]",4,6,# # # # # #,None
108,0.0,108,108.0,108.0,20.0,20.0,,,,,3,False,0.0,None,right,False,2,1,0,enc,0,0,1,[],[],4,6,3 3 3 1 1 2,6
109,1.5920975000044564,109,109.0,109.0,21.0,21.0,,,,,3,True,0.5,acc,right,False,2,1,6,ret,1,10,1,"['3', '3', '3', '1', '1', '2']","[118.43616630000179, 118.74835470000107, 119.03639150000527, 119.42831240000669, 119.77229720000469, 120.02826380000624]",4,6,# # # # # #,None
110,0.0,110,110.0,110.0,22.0,22.0,,,,,3,False,0.0,None,right,False,2,1,0,enc,0,0,0,[],[],4,6,1 4 3 2 2 1,6
111,1.8478123999957456,111,111.0,111.0,23.0,23.0,,,,,3,True,0.5,acc,right,False,2,1,6,ret,1,10,0,"['1', '2', '2', '3', '4', '1']","[127.12448860000586, 127.492316200005, 127.75634000000719, 128.07615209999494, 128.57218200000352, 128.9723010000016]",4,6,# # # # # #,None
112,0.0,112,112.0,0.0,0.0,,,,,,3,False,0.0,None,right,False,2,1,0,enc,0,0,1,[],[],5,6,4 3 1 1 1 1,6
113,1.6559998000011549,113,113.0,1.0,1.0,,,,,,3,True,0.5,acc,right,False,2,1,6,ret,1,10,1,"['4', '3', '1', '1', '1', '1']","[5.6313154000090435, 5.959168100001989, 6.575231000009808, 6.863219400009257, 7.08725380001124, 7.287315200010198]",5,6,# # # # # #,None
114,0.0,114,114.0,2.0,2.0,,,,,,3,False,0.0,None,right,False,2,1,0,enc,0,0,1,[],[],5,6,2 4 2 3 2 4,6
115,3.1360105999920047,115,115.0,3.0,3.0,,,,,,3,True,0.5,acc,right,False,2,1,6,ret,1,10,1,"['2', '4', '2', '3', '2', '4']","[14.319275800007745, 14.695247800002107, 15.10322129999986, 16.575195500001428, 16.84722850000253, 17.45528639999975]",5,6,# # # # # #,None
116,0.0,116,116.0,4.0,4.0,,,,,,2,False,0.0,None,right,False,2,1,0,enc,0,0,1,[],[],5,6,4 3 3 2 2 2,4
117,7.447944600004121,117,117.0,5.0,5.0,,,,,,2,True,0.5,acc,right,True,2,1,5,ret,1,5,1,"['4', '3', '2', '2', '2', '2']","[26.471258000005037, 27.031420100000105, 29.767385200000717, 33.35921500000404, 33.58355460000166, 33.91920260000916]",5,6,# # # # # #,None
118,0.0,118,118.0,6.0,6.0,,,,,,2,False,0.0,None,right,False,2,1,0,enc,0,0,1,[],[],5,6,2 3 1 3 2 3,4
119,2.088132099990617,119,119.0,7.0,7.0,,,,,,2,True,0.5,acc,right,False,2,1,6,ret,1,10,1,"['2', '3', '1', '3', '2', '3']","[44.07125950000773, 44.43124380000518, 45.079230400006054, 45.423196200004895, 45.83121480001137, 46.159391599998344]",5,6,# # # # # #,None
120,0.0,120,120.0,8.0,8.0,,,,,,2,False,0.0,None,right,False,2,1,0,enc,0,0,0,[],[],5,6,3 2 3 1 3 4,4
121,2.59986289999506,121,121.0,9.0,9.0,,,,,,2,True,0.5,acc,right,False,2,1,6,ret,1,10,0,"['4', '3', '1', '3', '2', '3']","[55.84734780000872, 56.375182600007975, 56.90336440000101, 57.447251200006576, 58.111205300010624, 58.44721070000378]",5,6,# # # # # #,None
122,0.0,122,122.0,10.0,10.0,,,,,,3,False,0.0,None,right,False,2,1,0,enc,0,0,0,[],[],5,6,1 3 1 4 1 1,6
123,4.7759272000112105,123,123.0,11.0,11.0,,,,,,3,True,0.5,acc,right,False,2,1,6,ret,1,10,0,"['1', '1', '4', '1', '3', '1']","[65.16723300000012, 65.4952137000073, 65.8951606000046, 68.08718750000116, 69.55121430000872, 69.94316020001133]",5,6,# # # # # #,None
124,0.0,124,124.0,12.0,12.0,,,,,,3,False,0.0,None,right,False,2,1,0,enc,0,0,0,[],[],5,6,3 3 4 4 1 1,6
125,1.7440148999885423,125,125.0,13.0,13.0,,,,,,3,True,0.5,acc,right,False,2,1,6,ret,1,10,0,"['1', '1', '4', '4', '3', '3']","[76.76716090000991, 77.12727880000602, 77.51920940000855, 77.84722310000507, 78.21522209999966, 78.51117579999845]",5,6,# # # # # #,None
126,0.0,126,126.0,14.0,14.0,,,,,,2,False,0.0,None,right,False,2,1,0,enc,0,0,0,[],[],5,6,1 4 1 2 4 4,4
127,3.2718953000003235,127,127.0,15.0,15.0,,,,,,2,True,0.5,acc,right,True,2,1,5,ret,1,5,0,"['4', '4', '2', '1', '3', '1']","[87.24722480001219, 87.59902639999927, 88.83120600000257, 89.27926270000171, 90.19115120000788, 90.51912010001251]",5,6,# # # # # #,None
128,0.0,128,128.0,16.0,16.0,,,,,,2,False,0.0,None,right,False,2,1,0,enc,0,0,1,[],[],5,6,1 2 2 1 4 2,4
129,2.9359425000002366,129,129.0,17.0,17.0,,,,,,2,True,0.5,acc,right,False,2,1,6,ret,1,10,1,"['1', '2', '2', '1', '4', '2']","[99.43116730000474, 99.97512790000474, 100.49522380001144, 100.99922540000989, 101.95121660000586, 102.36710980000498]",5,6,# # # # # #,None
130,0.0,130,130.0,18.0,18.0,,,,,,3,False,0.0,None,right,False,2,1,0,enc,0,0,1,[],[],5,6,2 2 1 3 1 3,6
131,7.4878784000029555,131,131.0,19.0,19.0,,,,,,3,True,0.5,acc,right,True,2,1,4,ret,1,4,1,"['1', '2', '3', '3', '1', '3']","[109.27112320000015, 111.32713000000513, 114.6710851000098, 116.42311719999998, 116.59912930001155, 116.7590016000031]",5,6,# # # # # #,None
132,0.0,132,132.0,20.0,20.0,,,,,,2,False,0.0,None,right,False,2,1,0,enc,0,0,0,[],[],5,6,3 4 2 3 1 4,4
133,5.3681219999998575,133,133.0,21.0,21.0,,,,,,2,True,0.5,acc,right,True,2,1,5,ret,1,5,0,"['4', '1', '3', '2', '1', '3']","[125.8229338000092, 126.2711219000048, 128.64710300001025, 129.32707280000614, 130.23908840000513, 131.19105580000905]",5,6,# # # # # #,None
134,0.0,134,134.0,22.0,22.0,,,,,,3,False,0.0,None,right,False,2,1,0,enc,0,0,0,[],[],5,6,2 3 3 3 4 2,6
135,4.367845000000671,135,135.0,23.0,23.0,,,,,,3,True,0.5,acc,right,True,2,1,5,ret,1,5,0,"['2', '4', '3', '3', '3', '1']","[139.39905279999948, 139.76698870000837, 140.74293440001202, 141.07135340000968, 141.98290480001015, 143.76689780000015]",5,6,# # # # # #,None
136,0.0,136,0.0,0.0,,,,,,,2,False,0.0,None,right,False,2,1,0,enc,0,0,1,[],[],6,6,2 3 1 1 2 3,4
137,1.3120409000111977,137,1.0,1.0,,,,,,,2,True,0.5,acc,right,False,2,1,6,ret,1,10,1,"['2', '3', '1', '1', '2', '3']","[6.7759652999957325, 7.072067400004016, 7.432126900006551, 7.688092800002778, 7.896051100004115, 8.08800620000693]",6,6,# # # # # #,None
138,0.0,138,2.0,2.0,,,,,,,3,False,0.0,None,right,False,2,1,0,enc,0,0,1,[],[],6,6,2 3 3 4 2 2,6
139,1.88821829999506,139,3.0,3.0,,,,,,,3,True,0.5,acc,right,False,2,1,6,ret,1,10,1,"['2', '3', '3', '4', '2', '2']","[14.743807899998501, 15.02395410000463, 15.255989900004352, 15.736107400007313, 16.41602810000768, 16.63202619999356]",6,6,# # # # # #,None
140,0.0,140,4.0,4.0,,,,,,,2,False,0.0,None,right,False,2,1,0,enc,0,0,0,[],[],6,6,3 1 2 4 4 4,4
141,5.095092899995507,141,5.0,5.0,,,,,,,2,True,0.5,acc,right,False,2,1,6,ret,1,10,0,"['4', '4', '4', '2', '1', '3']","[25.104777600005036, 25.400093899996136, 25.776089999999385, 28.33606279999367, 29.97585909999907, 30.199870500000543]",6,6,# # # # # #,None
142,0.0,142,6.0,6.0,,,,,,,3,False,0.0,None,right,False,2,1,0,enc,0,0,1,[],[],6,6,3 3 1 3 2 2,6
143,1.1999935000058028,143,7.0,7.0,,,,,,,3,True,0.5,acc,right,False,2,1,6,ret,1,10,1,"['3', '3', '1', '3', '2', '2']","[36.72801229999459, 36.95199539999885, 37.208026399996015, 37.52799820000655, 37.784071500005666, 37.92800580000039]",6,6,# # # # # #,None
144,0.0,144,8.0,8.0,,,,,,,2,False,0.0,None,right,False,2,1,0,enc,0,0,1,[],[],6,6,1 2 2 2 4 1,4
145,3.3440358999941964,145,9.0,9.0,,,,,,,2,True,0.5,acc,right,False,2,1,6,ret,1,10,1,"['1', '2', '2', '2', '4', '1']","[46.639989400006016, 48.12798049999401, 48.431953899998916, 48.79192190000322, 49.655950999993365, 49.98402530000021]",6,6,# # # # # #,None
146,0.0,146,10.0,10.0,,,,,,,3,False,0.0,None,right,False,2,1,0,enc,0,0,1,[],[],6,6,3 1 4 4 2 4,6
147,3.032036100004916,147,11.0,11.0,,,,,,,3,True,0.5,acc,right,False,2,1,6,ret,1,10,1,"['3', '1', '4', '4', '2', '4']","[57.52795659999538, 57.91980499999772, 59.05596610000066, 59.999930000005406, 60.280077000003075, 60.559992700000294]",6,6,# # # # # #,None
148,0.0,148,12.0,12.0,,,,,,,3,False,0.0,None,right,False,2,1,0,enc,0,0,0,[],[],6,6,3 4 1 3 4 2,6
149,3.8880782000051113,149,13.0,13.0,,,,,,,3,True,0.5,acc,right,True,2,1,4,ret,1,4,0,"['2', '4', '3', '4', '1', '3']","[68.90392260000226, 69.20797329999914, 69.55983030000061, 71.62393169999996, 72.4799456000037, 72.79200080000737]",6,6,# # # # # #,None
150,0.0,150,14.0,14.0,,,,,,,3,False,0.0,None,right,False,2,1,0,enc,0,0,0,[],[],6,6,1 2 1 3 1 1,6
151,3.9600781000044663,151,15.0,15.0,,,,,,,3,True,0.5,acc,right,True,2,1,5,ret,1,5,0,"['1', '1', '3', '4', '2', '1']","[78.9438669999945, 79.39990699999908, 79.9758434999967, 81.60005130000354, 82.67188039999746, 82.90394509999896]",6,6,# # # # # #,None
152,0.0,152,16.0,16.0,,,,,,,2,False,0.0,None,right,False,2,1,0,enc,0,0,1,[],[],6,6,2 1 4 3 3 2,4
153,3.5919547000085004,153,17.0,17.0,,,,,,,2,True,0.5,acc,right,False,2,1,6,ret,1,10,1,"['2', '1', '4', '3', '3', '2']","[91.79198809999798, 92.38394210000115, 93.24795020000602, 93.6398279999994, 95.07996109999658, 95.38394280000648]",6,6,# # # # # #,None
154,0.0,154,18.0,18.0,,,,,,,2,False,0.0,None,right,False,2,1,0,enc,0,0,0,[],[],6,6,1 4 4 1 2 3,4
155,4.5039996999985314,155,19.0,19.0,,,,,,,2,True,0.5,acc,right,True,2,1,4,ret,1,4,0,"['3', '2', '1', '4', '2', '3']","[105.40787080000155, 105.72785219999787, 107.54403619999357, 107.86392930000147, 109.68785079999361, 109.91187050000008]",6,6,# # # # # #,None
156,0.0,156,20.0,20.0,,,,,,,2,False,0.0,None,right,False,2,1,0,enc,0,0,0,[],[],6,6,2 1 2 3 4 4,4
157,5.440026299998863,157,21.0,21.0,,,,,,,2,True,0.5,acc,right,False,2,1,6,ret,1,10,0,"['4', '4', '3', '2', '1', '2']","[119.20775159999903, 119.55193509999663, 121.67976250000356, 122.02384470000106, 124.47195130000182, 124.64777789999789]",6,6,# # # # # #,None
158,0.0,158,22.0,22.0,,,,,,,3,False,0.0,None,right,False,2,1,0,enc,0,0,0,[],[],6,6,3 1 3 4 2 3,6
159,7.063959799997972,159,23.0,23.0,,,,,,,3,True,0.5,acc,right,False,2,1,6,ret,1,10,0,"['3', '2', '4', '3', '1', '3']","[132.24783829999797, 133.44788779999362, 134.1277548999933, 138.5038971000031, 139.02377709999564, 139.31179809999594]",6,6,# # # # # #,None
160,0.0,0,0.0,,,,,,,,2,False,0.0,None,right,False,2,1,0,enc,0,0,1,[],[],7,6,2 4 4 2 1 3,4
161,2.639883000010741,1,1.0,,,,,,,,2,True,0.5,acc,right,True,2,1,5,ret,1,5,1,"['2', '4', '4', '2', '1', '2']","[7.280831700001727, 7.672779600005015, 9.160734000004595, 9.432727700012038, 9.712919300000067, 9.920714700012468]",7,6,# # # # # #,None
162,0.0,2,2.0,,,,,,,,3,False,0.0,None,right,False,2,1,0,enc,0,0,1,[],[],7,6,2 4 3 1 4 4,6
163,1.6080862999951933,3,3.0,,,,,,,,3,True,0.5,acc,right,False,2,1,6,ret,1,10,1,"['2', '4', '3', '1', '4', '4']","[16.648702300008154, 16.984761600004276, 17.272757400001865, 17.608837899999344, 18.000739399998565, 18.256788600003347]",7,6,# # # # # #,None
164,0.0,4,4.0,,,,,,,,3,False,0.0,None,right,False,2,1,0,enc,0,0,1,[],[],7,6,3 3 4 4 4 1,6
165,1.5761745999916457,5,5.0,,,,,,,,3,True,0.5,acc,right,False,2,1,6,ret,1,10,1,"['3', '3', '4', '4', '4', '1']","[24.912668600009056, 25.240829300004407, 25.5450092000101, 25.944564300007187, 26.21663460000127, 26.4888432000007]",7,6,# # # # # #,None
166,0.0,6,6.0,,,,,,,,2,False,0.0,None,right,False,2,1,0,enc,0,0,1,[],[],7,6,4 1 2 3 3 2,4
167,1.3838758999918357,7,7.0,,,,,,,,2,True,0.5,acc,right,False,2,1,6,ret,1,10,1,"['4', '1', '2', '3', '3', '2']","[36.872818900010316, 37.20068290000199, 37.47271529999853, 37.736806500004604, 38.048741600010544, 38.25669480000215]",7,6,# # # # # #,None
168,0.0,8,8.0,,,,,,,,3,False,0.0,None,right,False,2,1,0,enc,0,0,0,[],[],7,6,3 4 2 1 2 2,6
169,3.0399826999928337,9,9.0,,,,,,,,3,True,0.5,acc,right,False,2,1,6,ret,1,10,0,"['2', '2', '1', '2', '4', '3']","[45.336718200007454, 45.67278790001001, 45.968824499999755, 47.63272870000219, 48.07275050001044, 48.37670090000029]",7,6,# # # # # #,None
170,0.0,10,10.0,,,,,,,,2,False,0.0,None,right,False,2,1,0,enc,0,0,0,[],[],7,6,4 4 3 4 3 3,4
171,4.767863299988676,11,11.0,,,,,,,,2,True,0.5,acc,right,True,2,1,5,ret,1,5,0,"['3', '3', '4', '3', '4', '3']","[58.1927035000117, 58.576713200003724, 60.697245100003784, 61.05657540001266, 62.624728399998276, 62.96056680000038]",7,6,# # # # # #,None
172,0.0,12,12.0,,,,,,,,2,False,0.0,None,right,False,2,1,0,enc,0,0,0,[],[],7,6,4 1 4 1 4 2,4
173,3.8399312999972612,13,13.0,,,,,,,,2,True,0.5,acc,right,False,2,1,6,ret,1,10,0,"['2', '4', '1', '4', '1', '4']","[71.74469570000656, 72.20068200000969, 73.98469230000046, 74.89666460000444, 75.27267590000702, 75.58462700000382]",7,6,# # # # # #,None
174,0.0,14,14.0,,,,,,,,3,False,0.0,None,right,False,2,1,0,enc,0,0,1,[],[],7,6,2 1 4 3 1 2,6
175,2.480677999992622,15,15.0,,,,,,,,3,True,0.5,acc,right,False,2,1,6,ret,1,10,1,"['2', '1', '4', '3', '1', '2']","[83.88065040000947, 84.35276750000776, 84.63258620000852, 85.88068050000584, 86.1767780000082, 86.3613284000021]",7,6,# # # # # #,None
176,0.0,16,16.0,,,,,,,,2,False,0.0,None,right,False,2,1,0,enc,0,0,0,[],[],7,6,4 4 4 2 4 2,4
177,1.9120883000141475,17,17.0,,,,,,,,2,True,0.5,acc,right,False,2,1,6,ret,1,10,0,"['2', '4', '2', '4', '4', '4']","[95.00862639999832, 95.3845994000003, 95.7846719000081, 96.32878870000422, 96.62468060001265, 96.92071470001247]",7,6,# # # # # #,None
178,0.0,18,18.0,,,,,,,,3,False,0.0,None,right,False,2,1,0,enc,0,0,0,[],[],7,6,3 1 4 4 2 4,6
179,2.9118653999903463,19,19.0,,,,,,,,3,True,0.5,acc,right,False,2,1,6,ret,1,10,0,"['4', '2', '4', '4', '1', '3']","[106.30470040001092, 106.63272940000752, 106.97664370000712, 108.72846990000107, 109.00059480000346, 109.21656580000126]",7,6,# # # # # #,None
180,0.0,20,20.0,,,,,,,,3,False,0.0,None,right,False,2,1,0,enc,0,0,0,[],[],7,6,1 4 2 2 3 4,6
181,2.6960351000016085,21,21.0,,,,,,,,3,True,0.5,acc,right,False,2,1,6,ret,1,10,0,"['4', '3', '2', '2', '4', '1']","[116.08860180000192, 116.3685603000049, 116.68873080000049, 118.23262730000715, 118.52875490000588, 118.78463690000353]",7,6,# # # # # #,None
182,0.0,22,22.0,,,,,,,,2,False,0.0,None,right,False,2,1,0,enc,0,0,1,[],[],7,6,1 1 2 1 1 3,4
183,1.9120521000004371,23,23.0,,,,,,,,2,True,0.5,acc,right,False,2,1,6,ret,1,10,1,"['1', '1', '2', '1', '1', '3']","[127.42462289999821, 127.67269740000484, 128.41657940000005, 128.72060590000183, 129.09657290000177, 129.33667499999865]",7,6,# # # # # #,None
0,0.0,0,,,,,,,,,2,False,0.0,None,right,False,2,1,0,enc,0,0,1,[],[],8,6,4 2 3 2 2 2,4
1,1.6479341999947792,1,,,,,,,,,2,True,0.5,acc,right,True,2,1,5,ret,1,5,1,"['4', '2', '3', '2', '3', '2']","[7.160596700006863, 7.56045110001287, 7.888494200000423, 8.20053500001086, 8.264502500009257, 8.808530900001642]",8,6,# # # # # #,None
2,0.0,2,,,,,,,,,2,False,0.0,None,right,False,2,1,0,enc,0,0,1,[],[],8,6,1 1 1 3 1 4,4
3,12.391716300000553,3,,,,,,,,,2,True,0.5,acc,right,True,2,1,2,ret,1,2,1,"['2', '1', '1', '1', '4', '3']","[10.352808900002856, 18.576589000003878, 19.888566800000262, 20.34461580000061, 22.45653590001166, 22.74452520000341]",8,6,# # # # # #,None
4,0.0,4,,,,,,,,,2,False,0.0,None,right,False,2,1,0,enc,0,0,0,[],[],8,6,2 1 2 1 3 4,4
5,1.631930999996257,5,,,,,,,,,2,True,0.5,acc,right,False,2,1,6,ret,1,10,0,"['4', '3', '1', '2', '1', '2']","[32.07265260000713, 32.52051770000253, 32.88850520001142, 33.1605741000094, 33.46467710001161, 33.70458360000339]",8,6,# # # # # #,None
6,0.0,6,,,,,,,,,2,False,0.0,None,right,False,2,1,0,enc,0,0,1,[],[],8,6,1 3 1 4 2 3,4
7,2.4160638000030303,7,,,,,,,,,2,True,0.5,acc,right,False,2,1,6,ret,1,10,1,"['1', '3', '1', '4', '2', '3']","[42.65655460000562, 42.936579700006405, 43.3525312999991, 44.216425800012075, 44.70455760000914, 45.07261840000865]",8,6,# # # # # #,None
8,0.0,8,,,,,,,,,3,False,0.0,None,right,False,2,1,0,enc,0,0,1,[],[],8,6,1 4 3 3 2 2,6
9,1.6321166999987327,9,,,,,,,,,3,True,0.5,acc,right,False,2,1,6,ret,1,10,1,"['1', '4', '3', '3', '2', '2']","[51.96848660000251, 52.32851020000817, 52.65646110000671, 53.10440790001303, 53.39252100000158, 53.60060330000124]",8,6,# # # # # #,None
10,0.0,10,,,,,,,,,2,False,0.0,None,right,False,2,1,0,enc,0,0,0,[],[],8,6,4 3 3 4 4 1,4
11,3.127947300003143,11,,,,,,,,,2,True,0.5,acc,right,True,2,1,4,ret,1,4,0,"['1', '4', '4', '3', '4', '1']","[62.928601999999955, 63.38445040000079, 64.82448690000456, 65.19248840000364, 65.77654160000384, 66.0565493000031]",8,6,# # # # # #,None
12,0.0,12,,,,,,,,,2,False,0.0,None,right,False,2,1,0,enc,0,0,0,[],[],8,6,3 1 3 2 4 2,4
13,3.311941100007971,13,,,,,,,,,2,True,0.5,acc,right,False,2,1,6,ret,1,10,0,"['2', '4', '2', '3', '1', '3']","[75.92046860000119, 76.33657940001285, 77.80049230001168, 78.08053430001019, 78.96851250001055, 79.23240970000916]",8,6,# # # # # #,None
14,0.0,14,,,,,,,,,3,False,0.0,None,right,False,2,1,0,enc,0,0,1,[],[],8,6,1 3 2 3 3 3,6
15,1.7998544000001857,15,,,,,,,,,3,True,0.5,acc,right,False,2,1,6,ret,1,10,1,"['1', '3', '2', '3', '3', '3']","[85.77655160000722, 86.10451900000044, 86.52047020000464, 86.86440350000339, 87.22443450000719, 87.57640600000741]",8,6,# # # # # #,None
16,0.0,16,,,,,,,,,3,False,0.0,None,right,False,2,1,0,enc,0,0,1,[],[],8,6,4 2 4 4 2 4,6
17,1.8239269000041531,17,,,,,,,,,3,True,0.5,acc,right,False,2,1,6,ret,1,10,1,"['4', '2', '4', '4', '2', '4']","[94.86449400000856, 95.32040060000145, 95.67222940000647, 96.00836200000776, 96.38444750000781, 96.68842090001272]",8,6,# # # # # #,None
18,0.0,18,,,,,,,,,3,False,0.0,None,right,False,2,1,0,enc,0,0,0,[],[],8,6,1 2 2 3 1 1,6
19,1.6479123000026448,19,,,,,,,,,3,True,0.5,acc,right,False,2,1,6,ret,1,10,0,"['1', '1', '3', '2', '2', '1']","[102.9525272000028, 103.25639690000389, 103.67249979999906, 104.12044220000098, 104.32862620000378, 104.60043950000545]",8,6,# # # # # #,None
20,0.0,20,,,,,,,,,3,False,0.0,None,right,False,2,1,0,enc,0,0,0,[],[],8,6,2 3 1 1 3 4,6
21,2.039865999991889,21,,,,,,,,,3,True,0.5,acc,right,True,2,1,4,ret,1,4,0,"['4', '3', '1', '3', '1', '2']","[111.88051640000776, 112.47240460000467, 112.90439410001272, 113.49643290000677, 113.760374400008, 113.92038239999965]",8,6,# # # # # #,None
22,0.0,22,,,,,,,,,3,False,0.0,None,right,False,2,1,0,enc,0,0,0,[],[],8,6,4 3 2 2 1 3,6
23,2.8720606999995653,23,,,,,,,,,3,True,0.5,acc,right,False,2,1,6,ret,1,10,0,"['3', '1', '2', '2', '3', '4']","[120.70429100000183, 121.27240290000918, 121.7603708000097, 123.05646350000461, 123.28846830000111, 123.5763517000014]",8,6,# # # # # #,None
