,Tn,MT,chunk,display_trial_feedback,feedback_dur,feedback_type,hand,is_error,item_dur,iti_dur,number_correct,phase,phase_type,points,recall_dir,response,response_time,run_number,seq_length,seq_str,trial_dur,P1,P2,P3,P4,P5,P6,IPI_0,IPI_1,IPI_2,IPI_3,IPI_4,IPI_5
0,0,0.0,3,False,0.0,None,right,False,2,1,0,enc,0,0,1,[],[],1,6,2 2 2 4 4 3,6,0.0,0.0,0.0,0.0,0.0,0.0,0,0.0,0.0,0.0,0.0,0.0
1,1,2.9350260999999587,3,True,0.5,acc,right,False,2,1,6,ret,1,10,1,"['2', '2', '2', '4', '4', '3']","[5.304026800000429, 5.599025200001051, 5.943006200002856, 7.19102820000262, 7.927536900002451, 8.239052900000388]",1,6,# # # # # #,None,5.304026800000429,5.599025200001051,5.943006200002856,7.19102820000262,7.927536900002451,8.239052900000388,-1.195973199999571,0.2949984000006225,0.3439810000018042,1.2480219999997644,0.7365086999998312,0.3115159999979369
2,2,0.0,3,False,0.0,None,right,False,2,1,0,enc,0,0,1,[],[],1,6,1 3 1 3 1 2,6,0.0,0.0,0.0,0.0,0.0,0.0,0,0.0,0.0,0.0,0.0,0.0
3,3,3.944002500000353,3,True,0.5,acc,right,False,2,1,6,ret,1,10,1,"['1', '3', '1', '3', '1', '2']","[14.910992000000988, 15.8550436000005, 16.463009400002193, 17.231009099999937, 18.2310114000029, 18.85499450000134]",1,6,# # # # # #,None,14.910992000000988,15.8550436000005,16.463009400002193,17.231009099999937,18.2310114000029,18.85499450000134,0.17193910000059986,0.9440515999995114,0.6079658000016934,0.7679996999977448,1.0000023000029614,0.6239830999984406
4,4,0.0,3,False,0.0,None,right,False,2,1,0,enc,0,0,0,[],[],1,6,4 1 4 3 4 3,6,0.0,0.0,0.0,0.0,0.0,0.0,0,0.0,0.0,0.0,0.0,0.0
5,5,10.343947900000783,3,True,0.5,acc,right,True,2,1,1,ret,1,1,0,"['4', '1', '4', '3', '1', '3']","[25.247063900002104, 25.83234950000042, 26.503012100001797, 34.37486990000252, 35.055013700002746, 35.59101180000289]",1,6,# # # # # #,None,25.247063900002104,25.83234950000042,26.503012100001797,34.37486990000252,35.055013700002746,35.59101180000289,-0.10793059999923571,0.5852855999983149,0.6706626000013785,7.8718578000007255,0.6801438000002236,0.5359981000001426
6,6,0.0,2,False,0.0,None,right,False,2,1,0,enc,0,0,1,[],[],1,6,4 3 4 1 4 4,4,0.0,0.0,0.0,0.0,0.0,0.0,0,0.0,0.0,0.0,0.0,0.0
7,7,2.7599864000003445,2,True,0.5,acc,right,False,2,1,6,ret,1,10,1,"['4', '3', '4', '1', '4', '4']","[44.567084900001646, 45.15900099999999, 45.711109200001374, 46.40705870000238, 46.911056400000234, 47.32707130000199]",1,6,# # # # # #,None,44.567084900001646,45.15900099999999,45.711109200001374,46.40705870000238,46.911056400000234,47.32707130000199,2.4760730999987572,0.5919160999983433,0.5521082000013848,0.6959495000010065,0.5039976999978535,0.41601490000175545
8,8,0.0,2,False,0.0,None,right,False,2,1,0,enc,0,0,0,[],[],1,6,4 1 3 3 1 4,4,0.0,0.0,0.0,0.0,0.0,0.0,0,0.0,0.0,0.0,0.0,0.0
9,9,7.280041599999095,2,True,0.5,acc,right,True,2,1,4,ret,1,4,0,"['4', '1', '3', '3', '4', '1']","[56.6629079000013, 57.518996900002094, 58.894970600002125, 59.37502190000305, 63.42292170000292, 63.942949500000395]",1,6,# # # # # #,None,56.6629079000013,57.518996900002094,58.894970600002125,59.37502190000305,63.42292170000292,63.942949500000395,2.835836599999311,0.856089000000793,1.3759737000000314,0.4800513000009232,4.047899799999868,0.5200277999974787
10,10,0.0,2,False,0.0,None,right,False,2,1,0,enc,0,0,0,[],[],1,6,1 3 4 2 2 2,4,0.0,0.0,0.0,0.0,0.0,0.0,0,0.0,0.0,0.0,0.0,0.0
11,11,7.888022899998759,2,True,0.5,acc,right,True,2,1,5,ret,1,5,0,"['2', '2', '4', '4', '3', '1']","[75.21483170000283, 75.51896500000294, 76.28694720000203, 80.60698500000217, 82.76691420000134, 83.10285460000159]",1,6,# # # # # #,None,75.21483170000283,75.51896500000294,76.28694720000203,80.60698500000217,82.76691420000134,83.10285460000159,4.7718822000024375,0.3041333000001032,0.7679821999990963,4.3200378000001365,2.159929199999169,0.33594040000025416
12,12,0.0,3,False,0.0,None,right,False,2,1,0,enc,0,0,0,[],[],1,6,4 1 1 1 4 3,6,0.0,0.0,0.0,0.0,0.0,0.0,0,0.0,0.0,0.0,0.0,0.0
13,13,4.288006499999028,3,True,0.5,acc,right,False,2,1,6,ret,1,10,0,"['3', '4', '1', '1', '1', '4']","[91.91892940000253, 92.48691510000208, 93.02286640000239, 95.70306300000084, 95.95893700000306, 96.20693590000155]",1,6,# # # # # #,None,91.91892940000253,92.48691510000208,93.02286640000239,95.70306300000084,95.95893700000306,96.20693590000155,2.3160748000009335,0.5679856999995536,0.5359513000003062,2.680196599998453,0.2558740000022226,0.24799889999849256
14,14,0.0,2,False,0.0,None,right,False,2,1,0,enc,0,0,1,[],[],1,6,1 2 3 4 3 1,4,0.0,0.0,0.0,0.0,0.0,0.0,0,0.0,0.0,0.0,0.0,0.0
15,15,2.32000859999971,2,True,0.5,acc,right,False,2,1,6,ret,1,10,1,"['1', '2', '3', '4', '3', '1']","[105.05486400000154, 105.4148617000028, 105.87962740000148, 106.37487870000041, 106.99078420000296, 107.37487260000125]",1,6,# # # # # #,None,105.05486400000154,105.4148617000028,105.87962740000148,106.37487870000041,106.99078420000296,107.37487260000125,2.34792809999999,0.35999770000125864,0.46476569999867934,0.4952512999989267,0.6159055000025546,0.3840883999982907
16,0,0.0,3,False,0.0,None,right,False,2,1,0,enc,0,0,1,[],[],1,6,4 2 2 1 1 2,6,0.0,0.0,0.0,0.0,0.0,0.0,0,0.0,0.0,0.0,0.0,0.0
17,1,2.368127900001128,3,True,0.5,acc,right,False,2,1,6,ret,1,10,1,"['4', '2', '2', '1', '1', '2']","[4.986716399998841, 5.090765199998714, 5.7947473999993235, 6.754823100000067, 6.970740299999306, 7.354844299999968]",1,6,# # # # # #,None,4.986716399998841,5.090765199998714,5.7947473999993235,6.754823100000067,6.970740299999306,7.354844299999968,NaN,0.10404879999987315,0.7039822000006097,0.9600757000007434,0.21591719999923953,0.38410400000066147
18,2,0.0,3,False,0.0,None,right,False,2,1,0,enc,0,0,1,[],[],1,6,3 3 2 2 3 3,6,0.0,0.0,0.0,0.0,0.0,0.0,0,0.0,0.0,0.0,0.0,0.0
19,3,2.9441488000011304,3,True,0.5,acc,right,True,2,1,5,ret,1,5,1,"['3', '3', '2', '2', '2', '3']","[13.962643499999103, 14.594659300000785, 15.0189117000009, 15.578811100000166, 15.915817199998855, 16.906792300000234]",1,6,# # # # # #,None,13.962643499999103,14.594659300000785,15.0189117000009,15.578811100000166,15.915817199998855,16.906792300000234,0.10779919999913545,0.6320158000016818,0.424252400000114,0.5598993999992672,0.337006099998689,0.9909751000013785
20,4,0.0,2,False,0.0,None,right,False,2,1,0,enc,0,0,0,[],[],1,6,1 4 4 2 2 1,4,0.0,0.0,0.0,0.0,0.0,0.0,0,0.0,0.0,0.0,0.0,0.0
21,5,6.287997100000213,2,True,0.5,acc,right,False,2,1,6,ret,1,10,0,"['1', '2', '2', '4', '4', '1']","[27.194609499998478, 28.090897699999914, 31.707702799998515, 32.07462029999806, 33.2348525999987, 33.48260659999869]",1,6,# # # # # #,None,27.194609499998478,28.090897699999914,31.707702799998515,32.07462029999806,33.2348525999987,33.48260659999869,3.787817199998244,0.896288200001436,3.616805099998601,0.3669174999995448,1.1602323000006436,0.24775399999998626
22,6,0.0,3,False,0.0,None,right,False,2,1,0,enc,0,0,0,[],[],1,6,2 3 3 2 4 1,6,0.0,0.0,0.0,0.0,0.0,0.0,0,0.0,0.0,0.0,0.0,0.0
23,7,4.001089500001399,3,True,0.5,acc,right,False,2,1,6,ret,1,10,0,"['1', '4', '2', '3', '3', '2']","[41.38679459999912, 41.86662559999968, 43.04405279999992, 44.62669570000071, 44.99465380000038, 45.38788410000052]",1,6,# # # # # #,None,41.38679459999912,41.86662559999968,43.04405279999992,44.62669570000071,44.99465380000038,45.38788410000052,1.4041880000004312,0.47983100000055856,1.1774272000002384,1.582642900000792,0.3679580999996688,0.39323030000014114
24,8,0.0,2,False,0.0,None,right,False,2,1,0,enc,0,0,0,[],[],1,6,4 3 2 1 3 4,4,0.0,0.0,0.0,0.0,0.0,0.0,0,0.0,0.0,0.0,0.0,0.0
25,9,4.606131699998514,2,True,0.5,acc,right,False,2,1,6,ret,1,10,0,"['4', '3', '1', '2', '3', '4']","[54.64459039999929, 55.0506979999991, 56.514740799997526, 56.850831600000674, 58.88265719999981, 59.2507220999978]",1,6,# # # # # #,None,54.64459039999929,55.0506979999991,56.514740799997526,56.850831600000674,58.88265719999981,59.2507220999978,2.7567062999987684,0.40610759999981383,1.464042799998424,0.3360908000031486,2.031825599999138,0.3680648999979894
26,10,0.0,2,False,0.0,None,right,False,2,1,0,enc,0,0,1,[],[],1,6,4 3 3 1 1 2,4,0.0,0.0,0.0,0.0,0.0,0.0,0,0.0,0.0,0.0,0.0,0.0
27,11,2.3600789999982226,2,True,0.5,acc,right,False,2,1,6,ret,1,10,1,"['4', '3', '3', '1', '1', '2']","[67.94663890000083, 68.33865969999897, 68.75473829999828, 69.1787734999998, 70.1145476999991, 70.30671789999906]",1,6,# # # # # #,None,67.94663890000083,68.33865969999897,68.75473829999828,69.1787734999998,70.1145476999991,70.30671789999906,2.195916800003033,0.39202079999813577,0.4160785999993095,0.4240352000015264,0.9357741999992868,0.1921701999999641
28,12,0.0,3,False,0.0,None,right,False,2,1,0,enc,0,0,0,[],[],1,6,2 3 4 2 2 1,6,0.0,0.0,0.0,0.0,0.0,0.0,0,0.0,0.0,0.0,0.0,0.0
29,13,4.815833199998451,3,True,0.5,acc,right,True,2,1,4,ret,1,4,0,"['1', '2', '2', '1', '3', '4']","[78.43475849999959, 78.90663719999793, 79.1638146999976, 82.13871989999825, 82.87479019999955, 83.25059169999804]",1,6,# # # # # #,None,78.43475849999959,78.90663719999793,79.1638146999976,82.13871989999825,82.87479019999955,83.25059169999804,1.6280406000005314,0.4718786999983422,0.25717749999967054,2.9749052000006486,0.7360703000013018,0.375801499998488
30,14,0.0,2,False,0.0,None,right,False,2,1,0,enc,0,0,1,[],[],1,6,4 2 3 4 2 1,4,0.0,0.0,0.0,0.0,0.0,0.0,0,0.0,0.0,0.0,0.0,0.0
31,15,3.655992200001492,2,True,0.5,acc,right,True,2,1,5,ret,1,5,1,"['4', '3', '3', '4', '2', '1']","[92.35459429999901, 92.85156149999966, 94.3466171, 95.13068239999848, 95.73060160000023, 96.0105865000005]",1,6,# # # # # #,None,92.35459429999901,92.85156149999966,94.3466171,95.13068239999848,95.73060160000023,96.0105865000005,2.6040026000009675,0.496967200000654,1.4950556000003417,0.7840652999984741,0.5999192000017501,0.2799849000002723
32,16,0.0,2,False,0.0,None,right,False,2,1,0,enc,0,0,1,[],[],1,6,1 4 1 3 2 4,4,0.0,0.0,0.0,0.0,0.0,0.0,0,0.0,0.0,0.0,0.0,0.0
33,17,2.8481358000026376,2,True,0.5,acc,right,False,2,1,6,ret,1,10,1,"['1', '4', '1', '3', '2', '4']","[104.81057329999749, 105.17056199999934, 106.01051659999939, 106.35587769999984, 107.36248129999876, 107.65870910000012]",1,6,# # # # # #,None,104.81057329999749,105.17056199999934,106.01051659999939,106.35587769999984,107.36248129999876,107.65870910000012,2.2999867999969865,0.3599887000018498,0.8399546000000555,0.34536110000044573,1.0066035999989253,0.2962278000013612
34,18,0.0,3,False,0.0,None,right,False,2,1,0,enc,0,0,0,[],[],1,6,2 3 3 3 3 4,6,0.0,0.0,0.0,0.0,0.0,0.0,0,0.0,0.0,0.0,0.0,0.0
35,19,6.697871500000472,3,True,0.5,acc,right,True,2,1,5,ret,1,5,0,"['4', '3', '3', '2', '3', '2']","[113.79451899999913, 114.10732279999866, 114.34661190000043, 115.79454790000091, 119.09061709999878, 120.4923904999996]",1,6,# # # # # #,None,113.79451899999913,114.10732279999866,114.34661190000043,115.79454790000091,119.09061709999878,120.4923904999996,-0.3641901000009966,0.31280379999952856,0.23928910000176984,1.4479360000004817,3.2960691999978735,1.4017734000008204
36,20,0.0,3,False,0.0,None,right,False,2,1,0,enc,0,0,1,[],[],1,6,1 1 3 2 2 4,6,0.0,0.0,0.0,0.0,0.0,0.0,0,0.0,0.0,0.0,0.0,0.0
37,21,1.8397910999992744,3,True,0.5,acc,right,False,2,1,6,ret,1,10,1,"['1', '1', '3', '2', '2', '4']","[127.16268760000094, 127.45056399999885, 127.91467999999804, 128.4985467999977, 128.76273199999923, 129.0024787000002]",1,6,# # # # # #,None,127.16268760000094,127.45056399999885,127.91467999999804,128.4985467999977,128.76273199999923,129.0024787000002,0.1702971000013349,0.2878763999979128,0.4641159999991942,0.5838667999996687,0.26418520000152057,0.2397467000009783
38,22,0.0,2,False,0.0,None,right,False,2,1,0,enc,0,0,0,[],[],1,6,4 1 1 1 4 4,4,0.0,0.0,0.0,0.0,0.0,0.0,0,0.0,0.0,0.0,0.0,0.0
39,23,4.376192899999297,2,True,0.5,acc,right,False,2,1,6,ret,1,10,0,"['4', '4', '1', '1', '1', '4']","[138.05847989999893, 138.3384288999987, 138.85858329999974, 139.08252809999976, 142.2104193999985, 142.43467279999822]",1,6,# # # # # #,None,138.05847989999893,138.3384288999987,138.85858329999974,139.08252809999976,142.2104193999985,142.43467279999822,2.556001199998718,0.2799489999997604,0.5201544000010472,0.2239448000000266,3.127891299998737,0.22425339999972493
40,0,0.0,3,False,0.0,None,right,False,2,1,0,enc,0,0,1,[],[],2,6,3 2 2 3 2 3,6,0.0,0.0,0.0,0.0,0.0,0.0,0,0.0,0.0,0.0,0.0,0.0
41,1,2.312054000001808,3,True,0.5,acc,right,False,2,1,6,ret,1,10,1,"['3', '2', '2', '3', '2', '3']","[5.54903639999975, 5.877164900000935, 6.165238099998533, 7.206078899998829, 7.565141999999469, 7.861090400001558]",2,6,# # # # # #,None,5.54903639999975,5.877164900000935,6.165238099998533,7.206078899998829,7.565141999999469,7.861090400001558,NaN,0.3281285000011849,0.28807319999759784,1.0408408000002964,0.3590631000006397,0.29594840000208933
42,2,0.0,2,False,0.0,None,right,False,2,1,0,enc,0,0,1,[],[],2,6,2 4 4 4 4 1,4,0.0,0.0,0.0,0.0,0.0,0.0,0,0.0,0.0,0.0,0.0,0.0
43,3,2.0978160999984543,2,True,0.5,acc,right,False,2,1,6,ret,1,10,1,"['2', '4', '4', '4', '4', '1']","[16.845202500000596, 17.485198900001706, 17.91727059999903, 18.245314899999357, 18.621299499998713, 18.94301859999905]",2,6,# # # # # #,None,16.845202500000596,17.485198900001706,17.91727059999903,18.245314899999357,18.621299499998713,18.94301859999905,2.484112099999038,0.6399964000011096,0.43207169999732287,0.3280443000003288,0.37598459999935585,0.32171910000033677
44,4,0.0,3,False,0.0,None,right,False,2,1,0,enc,0,0,1,[],[],2,6,1 4 1 4 4 3,6,0.0,0.0,0.0,0.0,0.0,0.0,0,0.0,0.0,0.0,0.0,0.0
45,5,1.944141299998592,3,True,0.5,acc,right,False,2,1,6,ret,1,10,1,"['1', '4', '1', '4', '4', '3']","[25.517213800001628, 25.909236899999087, 26.333217700001114, 26.789382700000715, 27.09352299999955, 27.46135510000022]",2,6,# # # # # #,None,25.517213800001628,25.909236899999087,26.333217700001114,26.789382700000715,27.09352299999955,27.46135510000022,0.07419520000257762,0.3920230999974592,0.42398080000202754,0.4561649999996007,0.30414029999883496,0.367832100000669
46,6,0.0,3,False,0.0,None,right,False,2,1,0,enc,0,0,0,[],[],2,6,1 3 1 3 1 3,6,0.0,0.0,0.0,0.0,0.0,0.0,0,0.0,0.0,0.0,0.0,0.0
47,7,2.568042799997784,3,True,0.5,acc,right,False,2,1,6,ret,1,10,0,"['3', '1', '3', '1', '3', '1']","[34.48521980000078, 34.90916250000009, 35.3251683999988, 36.33334340000147, 36.70932470000116, 37.05326259999856]",2,6,# # # # # #,None,34.48521980000078,34.90916250000009,35.3251683999988,36.33334340000147,36.70932470000116,37.05326259999856,0.5238647000005585,0.42394269999931566,0.41600589999870863,1.008175000002666,0.3759812999996939,0.34393789999739965
48,8,0.0,2,False,0.0,None,right,False,2,1,0,enc,0,0,0,[],[],2,6,2 1 4 4 4 2,4,0.0,0.0,0.0,0.0,0.0,0.0,0,0.0,0.0,0.0,0.0,0.0
49,9,3.103970299998764,2,True,0.5,acc,right,False,2,1,6,ret,1,10,0,"['2', '4', '4', '4', '1', '2']","[46.63719610000044, 47.021197400001256, 47.4691770999998, 47.8292005000003, 49.3011617000011, 49.7411663999992]",2,6,# # # # # #,None,46.63719610000044,47.021197400001256,47.4691770999998,47.8292005000003,49.3011617000011,49.7411663999992,3.0839335000018764,0.38400130000081845,0.44797969999854104,0.36002340000050026,1.4719612000008055,0.44000469999809866
50,10,0.0,3,False,0.0,None,right,False,2,1,0,enc,0,0,0,[],[],2,6,3 3 4 1 2 3,6,0.0,0.0,0.0,0.0,0.0,0.0,0,0.0,0.0,0.0,0.0,0.0
51,11,2.991950600000564,3,True,0.5,acc,right,True,2,1,5,ret,1,5,0,"['3', '2', '1', '4', '4', '3']","[56.32513520000066, 56.70921459999954, 57.58917680000013, 58.76544339999964, 59.053413500001625, 59.31708580000122]",2,6,# # # # # #,None,56.32513520000066,56.70921459999954,57.58917680000013,58.76544339999964,59.053413500001625,59.31708580000122,0.08396880000145757,0.38407939999888185,0.8799622000005911,1.176266599999508,0.287970100001985,0.2636722999995982
52,12,0.0,2,False,0.0,None,right,False,2,1,0,enc,0,0,0,[],[],2,6,4 2 2 2 3 1,4,0.0,0.0,0.0,0.0,0.0,0.0,0,0.0,0.0,0.0,0.0,0.0
53,13,8.704070899999351,2,True,0.5,acc,right,True,2,1,4,ret,1,4,0,"['1', '3', '4', '4', '2', '4']","[68.85312429999976, 69.2050917000015, 71.22289499999897, 73.86910050000006, 77.14122549999956, 77.55719519999911]",2,6,# # # # # #,None,68.85312429999976,69.2050917000015,71.22289499999897,73.86910050000006,77.14122549999956,77.55719519999911,3.03603849999854,0.3519674000017403,2.0178032999974675,2.646205500001088,3.2721249999995052,0.41596969999955036
54,14,0.0,3,False,0.0,None,right,False,2,1,0,enc,0,0,1,[],[],2,6,3 2 2 1 1 4,6,0.0,0.0,0.0,0.0,0.0,0.0,0,0.0,0.0,0.0,0.0,0.0
55,15,1.528024799998093,3,True,0.5,acc,right,False,2,1,6,ret,1,10,1,"['3', '2', '2', '1', '1', '4']","[84.50136560000101, 84.90112370000134, 85.15708369999993, 85.59706010000082, 85.81316119999974, 86.0293903999991]",2,6,# # # # # #,None,84.50136560000101,84.90112370000134,85.15708369999993,85.59706010000082,85.81316119999974,86.0293903999991,0.44417040000189445,0.3997581000003265,0.25595999999859487,0.4399764000008872,0.21610109999892302,0.2162291999993613
56,16,0.0,2,False,0.0,None,right,False,2,1,0,enc,0,0,0,[],[],2,6,4 3 2 1 2 2,4,0.0,0.0,0.0,0.0,0.0,0.0,0,0.0,0.0,0.0,0.0,0.0
57,17,4.631999500001257,2,True,0.5,acc,right,False,2,1,6,ret,1,10,0,"['2', '2', '1', '2', '3', '4']","[95.3892397999989, 95.62923619999856, 96.85309319999942, 97.0453114999982, 99.62907009999981, 100.02123930000016]",2,6,# # # # # #,None,95.3892397999989,95.62923619999856,96.85309319999942,97.0453114999982,99.62907009999981,100.02123930000016,2.8598493999998027,0.2399963999996544,1.2238570000008622,0.19221829999878537,2.5837586000016017,0.39216920000035316
58,18,0.0,2,False,0.0,None,right,False,2,1,0,enc,0,0,1,[],[],2,6,3 1 4 4 2 3,4,0.0,0.0,0.0,0.0,0.0,0.0,0,0.0,0.0,0.0,0.0,0.0
59,19,2.4400873000013235,2,True,0.5,acc,right,False,2,1,6,ret,1,10,1,"['3', '1', '4', '4', '2', '3']","[109.21298019999813, 109.97491779999837, 110.32531730000119, 110.71722139999838, 111.33323290000044, 111.65306749999945]",2,6,# # # # # #,None,109.21298019999813,109.97491779999837,110.32531730000119,110.71722139999838,111.33323290000044,111.65306749999945,2.691740899997967,0.7619376000002376,0.3503995000028226,0.3919040999971912,0.6160115000020596,0.3198345999990124
60,20,0.0,3,False,0.0,None,right,False,2,1,0,enc,0,0,0,[],[],2,6,1 1 4 4 3 2,6,0.0,0.0,0.0,0.0,0.0,0.0,0,0.0,0.0,0.0,0.0,0.0
61,21,3.367869700003212,3,True,0.5,acc,right,False,2,1,6,ret,1,10,0,"['2', '3', '4', '4', '1', '1']","[121.02109429999837, 121.39710510000077, 121.88507689999824, 123.84497280000141, 124.18899700000111, 124.38896400000158]",2,6,# # # # # #,None,121.02109429999837,121.39710510000077,121.88507689999824,123.84497280000141,124.18899700000111,124.38896400000158,2.8680267999989155,0.3760108000024047,0.4879717999974673,1.9598959000031755,0.34402419999969425,0.19996700000046985
62,22,0.0,2,False,0.0,None,right,False,2,1,0,enc,0,0,1,[],[],2,6,4 2 1 2 4 1,4,0.0,0.0,0.0,0.0,0.0,0.0,0,0.0,0.0,0.0,0.0,0.0
63,23,2.5358357999975847,2,True,0.5,acc,right,False,2,1,6,ret,1,10,1,"['4', '2', '1', '2', '4', '1']","[133.5812216000013, 134.1092462000015, 134.8852268999981, 135.30336909999824, 135.88492649999898, 136.11705739999888]",2,6,# # # # # #,None,133.5812216000013,134.1092462000015,134.8852268999981,135.30336909999824,135.88492649999898,136.11705739999888,2.6922575999997207,0.528024600000208,0.7759806999965804,0.41814220000014757,0.5815574000007473,0.23213089999990189
64,0,0.0,2,False,0.0,None,right,False,2,1,0,enc,0,0,1,[],[],3,6,1 3 3 1 2 3,4,0.0,0.0,0.0,0.0,0.0,0.0,0,0.0,0.0,0.0,0.0,0.0
65,1,1.8561136000025729,2,True,0.5,acc,right,False,2,1,6,ret,1,10,1,"['1', '3', '3', '1', '2', '3']","[6.568644899998617, 6.832798999999795, 7.1367551000003004, 7.648855100000219, 8.128755400000955, 8.42475850000119]",3,6,# # # # # #,None,6.568644899998617,6.832798999999795,7.1367551000003004,7.648855100000219,8.128755400000955,8.42475850000119,NaN,0.26415410000117845,0.3039561000005051,0.5120999999999185,0.479900300000736,0.29600310000023455
66,2,0.0,3,False,0.0,None,right,False,2,1,0,enc,0,0,0,[],[],3,6,2 3 1 2 2 1,6,0.0,0.0,0.0,0.0,0.0,0.0,0,0.0,0.0,0.0,0.0,0.0
67,3,6.728098399998999,3,True,0.5,acc,right,False,2,1,6,ret,1,10,0,"['1', '2', '2', '1', '3', '2']","[16.728709300001356, 17.06469559999823, 17.313638799998444, 22.880734800000937, 23.144811199999822, 23.456807700000354]",3,6,# # # # # #,None,16.728709300001356,17.06469559999823,17.313638799998444,22.880734800000937,23.144811199999822,23.456807700000354,1.803950800000166,0.33598629999687546,0.24894320000021253,5.567096000002493,0.2640763999988849,0.31199650000053225
68,4,0.0,3,False,0.0,None,right,False,2,1,0,enc,0,0,1,[],[],3,6,4 1 3 2 2 1,6,0.0,0.0,0.0,0.0,0.0,0.0,0,0.0,0.0,0.0,0.0,0.0
69,5,6.015985400001228,3,True,0.5,acc,right,True,2,1,4,ret,1,4,1,"['4', '3', '1', '2', '2', '1']","[30.224719599998934, 30.544547400000738, 31.848662199998216, 35.85669770000095, 36.0807089000009, 36.24070500000016]",3,6,# # # # # #,None,30.224719599998934,30.544547400000738,31.848662199998216,35.85669770000095,36.0807089000009,36.24070500000016,0.26791189999858034,0.31982780000180355,1.3041147999974783,4.008035500002734,0.2240111999999499,0.1599960999992618
70,6,0.0,2,False,0.0,None,right,False,2,1,0,enc,0,0,0,[],[],3,6,3 4 4 3 4 1,4,0.0,0.0,0.0,0.0,0.0,0.0,0,0.0,0.0,0.0,0.0,0.0
71,7,5.751857700000982,2,True,0.5,acc,right,False,2,1,6,ret,1,10,0,"['1', '4', '3', '4', '4', '3']","[45.7127459000003, 46.06459410000025, 50.400618899999245, 50.793516400000954, 51.160601999999926, 51.46460360000128]",3,6,# # # # # #,None,45.7127459000003,46.06459410000025,50.400618899999245,50.793516400000954,51.160601999999926,51.46460360000128,2.972040900000138,0.35184819999994943,4.336024799998995,0.392897500001709,0.3670855999989726,0.30400160000135656
72,8,0.0,3,False,0.0,None,right,False,2,1,0,enc,0,0,1,[],[],3,6,1 2 2 4 4 3,6,0.0,0.0,0.0,0.0,0.0,0.0,0,0.0,0.0,0.0,0.0,0.0
73,9,1.7597464999998915,3,True,0.5,acc,right,False,2,1,6,ret,1,10,1,"['1', '2', '2', '4', '4', '3']","[57.83278100000098, 58.144627699999546, 58.43264940000154, 59.024645800000144, 59.31264440000086, 59.59252750000087]",3,6,# # # # # #,None,57.83278100000098,58.144627699999546,58.43264940000154,59.024645800000144,59.31264440000086,59.59252750000087,-0.1318226000003051,0.3118466999985685,0.2880217000019911,0.5919963999986066,0.2879986000007193,0.2798831000000064
74,10,0.0,2,False,0.0,None,right,False,2,1,0,enc,0,0,0,[],[],3,6,4 4 3 2 3 3,4,0.0,0.0,0.0,0.0,0.0,0.0,0,0.0,0.0,0.0,0.0,0.0
75,11,3.647974300001806,2,True,0.5,acc,right,False,2,1,6,ret,1,10,0,"['3', '3', '2', '3', '4', '4']","[69.26465729999836, 69.52859819999867, 70.94462520000161, 71.22462190000078, 72.67250670000067, 72.91263160000017]",3,6,# # # # # #,None,69.26465729999836,69.52859819999867,70.94462520000161,71.22462190000078,72.67250670000067,72.91263160000017,3.1721297999974922,0.263940900000307,1.4160270000029413,0.27999669999917387,1.4478847999998834,0.24012489999950049
76,12,0.0,3,False,0.0,None,right,False,2,1,0,enc,0,0,0,[],[],3,6,2 4 3 2 2 4,6,0.0,0.0,0.0,0.0,0.0,0.0,0,0.0,0.0,0.0,0.0,0.0
77,13,10.048021599999627,3,True,0.5,acc,right,True,2,1,0,ret,1,0,0,"['2', '3', '3', '1', '2', '4']","[84.89659440000105, 86.26463560000047, 86.52863680000155, 92.36069910000151, 94.41659129999971, 94.94461600000068]",3,6,# # # # # #,None,84.89659440000105,86.26463560000047,86.52863680000155,92.36069910000151,94.41659129999971,94.94461600000068,5.4839628000008815,1.3680411999994249,0.26400120000107563,5.832062299999961,2.0558921999981976,0.5280247000009695
78,14,0.0,2,False,0.0,None,right,False,2,1,0,enc,0,0,0,[],[],3,6,2 3 4 4 1 2,4,0.0,0.0,0.0,0.0,0.0,0.0,0,0.0,0.0,0.0,0.0,0.0
79,15,4.136025200001313,2,True,0.5,acc,right,False,2,1,6,ret,1,10,0,"['2', '1', '4', '4', '3', '2']","[103.74457540000003, 104.04066590000002, 105.83265340000071, 106.11265229999844, 107.64859169999909, 107.88060060000134]",3,6,# # # # # #,None,103.74457540000003,104.04066590000002,105.83265340000071,106.11265229999844,107.64859169999909,107.88060060000134,2.299959399999352,0.29609049999999115,1.7919875000006869,0.27999889999773586,1.5359394000006432,0.23200890000225627
80,16,0.0,3,False,0.0,None,right,False,2,1,0,enc,0,0,1,[],[],3,6,2 1 1 2 4 1,6,0.0,0.0,0.0,0.0,0.0,0.0,0,0.0,0.0,0.0,0.0,0.0
81,17,2.1520103000002564,3,True,0.5,acc,right,False,2,1,6,ret,1,10,1,"['2', '1', '1', '2', '4', '1']","[114.77655899999809, 115.13657329999842, 115.40041829999973, 116.22456949999832, 116.52856170000086, 116.92856929999834]",3,6,# # # # # #,None,114.77655899999809,115.13657329999842,115.40041829999973,116.22456949999832,116.52856170000086,116.92856929999834,0.39595839999674354,0.36001430000032997,0.26384500000131084,0.824151199998596,0.3039922000025399,0.4000075999974797
82,18,0.0,3,False,0.0,None,right,False,2,1,0,enc,0,0,0,[],[],3,6,3 2 1 1 3 2,6,0.0,0.0,0.0,0.0,0.0,0.0,0,0.0,0.0,0.0,0.0,0.0
83,19,6.559887499999603,3,True,0.5,acc,right,True,2,1,4,ret,1,4,0,"['2', '4', '1', '1', '4', '3']","[126.08865050000168, 126.5926189999991, 127.60857820000092, 130.68055660000027, 131.7845344999987, 132.64853800000128]",3,6,# # # # # #,None,126.08865050000168,126.5926189999991,127.60857820000092,130.68055660000027,131.7845344999987,132.64853800000128,2.660081200003333,0.503968499997427,1.0159592000018165,3.0719783999993524,1.1039778999984264,0.8640035000025819
84,20,0.0,2,False,0.0,None,right,False,2,1,0,enc,0,0,1,[],[],3,6,1 4 1 4 2 1,4,0.0,0.0,0.0,0.0,0.0,0.0,0,0.0,0.0,0.0,0.0,0.0
85,21,2.6718508999983897,2,True,0.5,acc,right,True,2,1,4,ret,1,4,1,"['1', '4', '4', '1', '2', '1']","[141.80053150000094, 142.08848220000073, 142.40047409999897, 142.75249149999945, 144.27262110000083, 144.47238239999933]",3,6,# # # # # #,None,141.80053150000094,142.08848220000073,142.40047409999897,142.75249149999945,144.27262110000083,144.47238239999933,2.651993499999662,0.28795069999978296,0.3119918999982474,0.3520174000004772,1.5201296000013826,0.19976129999849945
86,22,0.0,2,False,0.0,None,right,False,2,1,0,enc,0,0,1,[],[],3,6,1 3 2 1 1 3,4,0.0,0.0,0.0,0.0,0.0,0.0,0,0.0,0.0,0.0,0.0,0.0
87,23,2.3118412000003445,2,True,0.5,acc,right,False,2,1,6,ret,1,10,1,"['1', '3', '2', '1', '1', '3']","[153.1925568000006, 153.51336889999948, 154.46451380000144, 154.80843770000138, 155.1366240999996, 155.50439800000095]",3,6,# # # # # #,None,153.1925568000006,153.51336889999948,154.46451380000144,154.80843770000138,155.1366240999996,155.50439800000095,2.2201744000012695,0.32081209999887506,0.9511449000019638,0.3439238999999361,0.3281863999982306,0.3677739000013389
88,0,0.0,2,False,0.0,None,right,False,2,1,0,enc,0,0,1,[],[],4,6,4 4 1 3 2 2,4,0.0,0.0,0.0,0.0,0.0,0.0,0,0.0,0.0,0.0,0.0,0.0
89,1,1.950814200001332,2,True,0.5,acc,right,False,2,1,6,ret,1,10,1,"['4', '4', '1', '3', '2', '2']","[6.52440260000003, 6.915213100000983, 7.307122199999867, 7.731313300002512, 8.171304900002724, 8.475216800001363]",4,6,# # # # # #,None,6.52440260000003,6.915213100000983,7.307122199999867,7.731313300002512,8.171304900002724,8.475216800001363,NaN,0.39081050000095274,0.3919090999988839,0.4241911000026448,0.4399916000002122,0.30391189999863855
90,2,0.0,2,False,0.0,None,right,False,2,1,0,enc,0,0,0,[],[],4,6,3 2 1 3 4 3,4,0.0,0.0,0.0,0.0,0.0,0.0,0,0.0,0.0,0.0,0.0,0.0
91,3,4.528323400001682,2,True,0.5,acc,right,False,2,1,6,ret,1,10,0,"['3', '4', '3', '1', '2', '3']","[17.2592353, 17.723304800001642, 19.851335800001834, 20.235310600000957, 21.4992886, 21.787558700001682]",4,6,# # # # # #,None,17.2592353,17.723304800001642,19.851335800001834,20.235310600000957,21.4992886,21.787558700001682,2.2840184999986377,0.46406950000164215,2.128031000000192,0.3839747999991232,1.2639779999990424,0.2882701000016823
92,4,0.0,3,False,0.0,None,right,False,2,1,0,enc,0,0,0,[],[],4,6,2 3 2 3 1 2,6,0.0,0.0,0.0,0.0,0.0,0.0,0,0.0,0.0,0.0,0.0,0.0
93,5,10.855991399999766,3,True,0.5,acc,right,True,2,1,5,ret,1,5,0,"['2', '1', '4', '2', '3', '2']","[30.347195800000918, 34.059221600000456, 34.93126900000061, 40.39515610000308, 40.899182799999835, 41.203187200000684]",4,6,# # # # # #,None,30.347195800000918,34.059221600000456,34.93126900000061,40.39515610000308,40.899182799999835,41.203187200000684,2.059637099999236,3.7120257999995374,0.8720474000001559,5.4638871000024665,0.5040266999967571,0.3040044000008493
94,6,0.0,3,False,0.0,None,right,False,2,1,0,enc,0,0,1,[],[],4,6,4 4 4 2 2 1,6,0.0,0.0,0.0,0.0,0.0,0.0,0,0.0,0.0,0.0,0.0,0.0
95,7,1.7277909000004,3,True,0.5,acc,right,False,2,1,6,ret,1,10,1,"['4', '4', '4', '2', '2', '1']","[47.40333140000075, 47.73915750000015, 48.123184899999615, 48.45916399999987, 48.78724169999987, 49.13112230000115]",4,6,# # # # # #,None,47.40333140000075,47.73915750000015,48.123184899999615,48.45916399999987,48.78724169999987,49.13112230000115,-0.29985579999993206,0.3358260999993945,0.3840273999994679,0.33597910000025877,0.32807769999999437,0.3438806000012846
96,8,0.0,2,False,0.0,None,right,False,2,1,0,enc,0,0,1,[],[],4,6,3 1 4 3 4 1,4,0.0,0.0,0.0,0.0,0.0,0.0,0,0.0,0.0,0.0,0.0,0.0
97,9,4.13606340000115,2,True,0.5,acc,right,False,2,1,6,ret,1,10,1,"['3', '1', '4', '3', '4', '1']","[58.3071658000008, 58.81927910000013, 59.26726340000096, 59.93916900000113, 62.17125810000289, 62.44322920000195]",4,6,# # # # # #,None,58.3071658000008,58.81927910000013,59.26726340000096,59.93916900000113,62.17125810000289,62.44322920000195,2.6760434999996505,0.5121132999993279,0.4479843000008259,0.6719056000001729,2.232089100001758,0.2719710999990639
98,10,0.0,3,False,0.0,None,right,False,2,1,0,enc,0,0,1,[],[],4,6,3 1 4 2 4 3,6,0.0,0.0,0.0,0.0,0.0,0.0,0,0.0,0.0,0.0,0.0,0.0
99,11,6.36804580000171,3,True,0.5,acc,right,False,2,1,6,ret,1,10,1,"['3', '1', '4', '2', '4', '3']","[69.37117410000064, 69.7151343000005, 70.07515469999998, 74.65111460000116, 75.38713869999992, 75.73921990000235]",4,6,# # # # # #,None,69.37117410000064,69.7151343000005,70.07515469999998,74.65111460000116,75.38713869999992,75.73921990000235,0.42794489999869256,0.34396019999985583,0.36002039999948465,4.57595990000118,0.7360240999987582,0.3520812000024307
100,12,0.0,2,False,0.0,None,right,False,2,1,0,enc,0,0,0,[],[],4,6,2 1 4 1 4 4,4,0.0,0.0,0.0,0.0,0.0,0.0,0,0.0,0.0,0.0,0.0,0.0
101,13,4.696543599999131,2,True,0.5,acc,right,False,2,1,6,ret,1,10,0,"['4', '4', '1', '4', '1', '2']","[83.97924160000184, 84.34721800000261, 86.347050700002, 86.76309089999995, 88.46759139999995, 88.67578520000097]",4,6,# # # # # #,None,83.97924160000184,84.34721800000261,86.347050700002,86.76309089999995,88.46759139999995,88.67578520000097,1.7400216999994882,0.3679764000007708,1.9998326999993878,0.4160401999979513,1.7045004999999946,0.20819380000102683
102,14,0.0,3,False,0.0,None,right,False,2,1,0,enc,0,0,0,[],[],4,6,4 4 4 2 2 3,6,0.0,0.0,0.0,0.0,0.0,0.0,0,0.0,0.0,0.0,0.0,0.0
103,15,1.7529557999987446,3,True,0.5,acc,right,False,2,1,6,ret,1,10,0,"['3', '2', '2', '4', '4', '4']","[95.33910120000291, 95.71518510000169, 96.01118979999956, 96.34719650000261, 96.72320310000214, 97.09205700000166]",4,6,# # # # # #,None,95.33910120000291,95.71518510000169,96.01118979999956,96.34719650000261,96.72320310000214,97.09205700000166,0.16331600000194157,0.37608389999877545,0.2960046999978658,0.336006700003054,0.3760065999995277,0.3688538999995217
104,16,0.0,2,False,0.0,None,right,False,2,1,0,enc,0,0,1,[],[],4,6,4 2 3 2 4 3,4,0.0,0.0,0.0,0.0,0.0,0.0,0,0.0,0.0,0.0,0.0,0.0
105,17,2.5438972000010835,2,True,0.5,acc,right,False,2,1,6,ret,1,10,1,"['4', '2', '3', '2', '4', '3']","[106.05924040000173, 106.81102610000016, 107.23509950000152, 107.81120840000222, 108.2671506000006, 108.60313760000281]",4,6,# # # # # #,None,106.05924040000173,106.81102610000016,107.23509950000152,107.81120840000222,108.2671506000006,108.60313760000281,2.467183400000067,0.751785699998436,0.42407340000136173,0.5761089000006905,0.4559421999983897,0.3359870000022056
106,18,0.0,2,False,0.0,None,right,False,2,1,0,enc,0,0,0,[],[],4,6,4 4 2 3 3 4,4,0.0,0.0,0.0,0.0,0.0,0.0,0,0.0,0.0,0.0,0.0,0.0
107,19,5.287978699998348,2,True,0.5,acc,right,False,2,1,6,ret,1,10,0,"['4', '3', '3', '2', '4', '4']","[117.41105000000243, 118.01103920000241, 121.33103010000195, 121.69897570000103, 122.3710882000014, 122.69902870000078]",4,6,# # # # # #,None,117.41105000000243,118.01103920000241,121.33103010000195,121.69897570000103,122.3710882000014,122.69902870000078,2.3079123999996227,0.5999891999999818,3.3199908999995387,0.36794559999907506,0.6721125000003667,0.3279404999993858
108,20,0.0,3,False,0.0,None,right,False,2,1,0,enc,0,0,1,[],[],4,6,3 3 3 1 1 2,6,0.0,0.0,0.0,0.0,0.0,0.0,0,0.0,0.0,0.0,0.0,0.0
109,21,7.118418599999131,3,True,0.5,acc,right,False,2,1,6,ret,1,10,1,"['3', '3', '3', '1', '1', '2']","[124.23661730000094, 129.48294490000262, 129.8670791000004, 130.89114680000057, 131.13908699999956, 131.35503590000008]",4,6,# # # # # #,None,124.23661730000094,129.48294490000262,129.8670791000004,130.89114680000057,131.13908699999956,131.35503590000008,-4.962411399999837,5.246327600001678,0.38413419999778853,1.0240677000001597,0.2479401999989932,0.21594890000051237
110,22,0.0,3,False,0.0,None,right,False,2,1,0,enc,0,0,0,[],[],4,6,1 4 3 2 2 1,6,0.0,0.0,0.0,0.0,0.0,0.0,0,0.0,0.0,0.0,0.0,0.0
111,23,3.295187800002168,3,True,0.5,acc,right,False,2,1,6,ret,1,10,0,"['1', '2', '2', '3', '4', '1']","[138.21173350000026, 138.4829290000016, 138.7791023000027, 140.69102740000017, 141.24307990000307, 141.50692130000243]",4,6,# # # # # #,None,138.21173350000026,138.4829290000016,138.7791023000027,140.69102740000017,141.24307990000307,141.50692130000243,0.3566976000001887,0.2711955000013404,0.29617330000110087,1.911925099997461,0.5520525000029011,0.2638413999993645
112,0,0.0,3,False,0.0,None,right,False,2,1,0,enc,0,0,1,[],[],5,6,4 3 1 1 1 1,6,0.0,0.0,0.0,0.0,0.0,0.0,0,0.0,0.0,0.0,0.0,0.0
113,1,1.623470599999564,3,True,0.5,acc,right,False,2,1,6,ret,1,10,1,"['4', '3', '1', '1', '1', '1']","[4.442741300001217, 4.810179799998878, 5.186031599998387, 5.506202299999131, 5.770296999999118, 6.066211900000781]",5,6,# # # # # #,None,4.442741300001217,4.810179799998878,5.186031599998387,5.506202299999131,5.770296999999118,6.066211900000781,NaN,0.367438499997661,0.37585179999950924,0.32017070000074455,0.2640946999999869,0.2959149000016623
114,2,0.0,3,False,0.0,None,right,False,2,1,0,enc,0,0,1,[],[],5,6,2 4 2 3 2 4,6,0.0,0.0,0.0,0.0,0.0,0.0,0,0.0,0.0,0.0,0.0,0.0
115,3,5.144063699997787,3,True,0.5,acc,right,True,2,1,3,ret,1,3,1,"['2', '3', '2', '2', '4', '4']","[14.85813490000146, 15.17005920000156, 15.706189500000619, 17.01816129999861, 19.25017129999833, 20.002198599999247]",5,6,# # # # # #,None,14.85813490000146,15.17005920000156,15.706189500000619,17.01816129999861,19.25017129999833,20.002198599999247,2.291923000000679,0.31192430000010063,0.5361302999990585,1.3119717999979912,2.2320099999997183,0.7520273000009183
116,4,0.0,2,False,0.0,None,right,False,2,1,0,enc,0,0,1,[],[],5,6,4 3 3 2 2 2,4,0.0,0.0,0.0,0.0,0.0,0.0,0,0.0,0.0,0.0,0.0,0.0
117,5,2.232022299998789,2,True,0.5,acc,right,False,2,1,6,ret,1,10,1,"['4', '3', '3', '2', '2', '2']","[28.538093999999546, 28.97008999999889, 29.442183399998612, 30.130134899998666, 30.474332500001765, 30.770116299998335]",5,6,# # # # # #,None,28.538093999999546,28.97008999999889,29.442183399998612,30.130134899998666,30.474332500001765,30.770116299998335,2.0358954000002996,0.43199599999934435,0.47209339999972144,0.6879515000000538,0.34419760000309907,0.29578379999657045
118,6,0.0,2,False,0.0,None,right,False,2,1,0,enc,0,0,1,[],[],5,6,2 3 1 3 2 3,4,0.0,0.0,0.0,0.0,0.0,0.0,0,0.0,0.0,0.0,0.0,0.0
119,7,2.432153899997502,2,True,0.5,acc,right,False,2,1,6,ret,1,10,1,"['2', '3', '1', '3', '2', '3']","[39.28996130000087, 40.20208690000072, 40.810185599999386, 41.07412159999876, 41.44222459999946, 41.72211519999837]",5,6,# # # # # #,None,39.28996130000087,40.20208690000072,40.810185599999386,41.07412159999876,41.44222459999946,41.72211519999837,2.019845000002533,0.9121255999998539,0.6080986999986635,0.2639359999993758,0.3681030000007013,0.2798905999989074
120,8,0.0,2,False,0.0,None,right,False,2,1,0,enc,0,0,0,[],[],5,6,3 2 3 1 3 4,4,0.0,0.0,0.0,0.0,0.0,0.0,0,0.0,0.0,0.0,0.0,0.0
121,9,3.535851399999956,2,True,0.5,acc,right,False,2,1,6,ret,1,10,0,"['4', '3', '1', '3', '2', '3']","[50.66611030000058, 51.17010020000089, 53.13808390000122, 53.56206440000096, 53.914105399999244, 54.20196170000054]",5,6,# # # # # #,None,50.66611030000058,51.17010020000089,53.13808390000122,53.56206440000096,53.914105399999244,54.20196170000054,2.443995100002212,0.5039899000003061,1.9679837000003317,0.4239804999997432,0.3520409999982803,0.2878563000012946
122,10,0.0,3,False,0.0,None,right,False,2,1,0,enc,0,0,0,[],[],5,6,1 3 1 4 1 1,6,0.0,0.0,0.0,0.0,0.0,0.0,0,0.0,0.0,0.0,0.0,0.0
123,11,3.1840222000028007,3,True,0.5,acc,right,False,2,1,6,ret,1,10,0,"['1', '1', '4', '1', '3', '1']","[60.98599159999867, 61.210014799999044, 61.59405189999961, 63.40206730000136, 63.93002770000021, 64.17001380000147]",5,6,# # # # # #,None,60.98599159999867,61.210014799999044,61.59405189999961,63.40206730000136,63.93002770000021,64.17001380000147,0.28402989999813144,0.22402320000037435,0.3840371000005689,1.80801540000175,0.5279603999988467,0.23998610000126064
124,12,0.0,3,False,0.0,None,right,False,2,1,0,enc,0,0,0,[],[],5,6,3 3 4 4 1 1,6,0.0,0.0,0.0,0.0,0.0,0.0,0,0.0,0.0,0.0,0.0,0.0
125,13,5.456139300000359,3,True,0.5,acc,right,True,2,1,5,ret,1,5,0,"['1', '1', '4', '1', '3', '3']","[74.1699852999991, 74.49016889999984, 74.82604980000178, 78.89012430000002, 79.35414200000014, 79.62612459999946]",5,6,# # # # # #,None,74.1699852999991,74.49016889999984,74.82604980000178,78.89012430000002,79.35414200000014,79.62612459999946,3.4999714999976277,0.3201836000007461,0.33588090000193915,4.064074499998242,0.4640177000001131,0.27198259999931906
126,14,0.0,2,False,0.0,None,right,False,2,1,0,enc,0,0,0,[],[],5,6,1 4 1 2 4 4,4,0.0,0.0,0.0,0.0,0.0,0.0,0,0.0,0.0,0.0,0.0,0.0
127,15,4.344046700000035,2,True,0.5,acc,right,False,2,1,6,ret,1,10,0,"['4', '4', '2', '1', '4', '1']","[88.58604689999993, 88.92208440000104, 91.84198660000038, 92.17000349999944, 92.69008620000022, 92.93009359999996]",5,6,# # # # # #,None,88.58604689999993,88.92208440000104,91.84198660000038,92.17000349999944,92.69008620000022,92.93009359999996,2.4599223000004713,0.33603750000111177,2.919902199999342,0.3280168999990565,0.5200827000007848,0.2400073999997403
128,16,0.0,2,False,0.0,None,right,False,2,1,0,enc,0,0,1,[],[],5,6,1 2 2 1 4 2,4,0.0,0.0,0.0,0.0,0.0,0.0,0,0.0,0.0,0.0,0.0,0.0
129,17,1.9519496000029903,2,True,0.5,acc,right,False,2,1,6,ret,1,10,1,"['1', '2', '2', '1', '4', '2']","[101.69012179999845, 102.12197960000049, 102.43405920000077, 102.90602969999964, 103.2660008999992, 103.64207140000144]",5,6,# # # # # #,None,101.69012179999845,102.12197960000049,102.43405920000077,102.90602969999964,103.2660008999992,103.64207140000144,2.2600281999984873,0.4318578000020352,0.31207960000028834,0.47197049999886076,0.3599711999995634,0.3760705000022426
130,18,0.0,3,False,0.0,None,right,False,2,1,0,enc,0,0,1,[],[],5,6,2 2 1 3 1 3,6,0.0,0.0,0.0,0.0,0.0,0.0,0,0.0,0.0,0.0,0.0,0.0
131,19,2.0629958999998053,3,True,0.5,acc,right,False,2,1,6,ret,1,10,1,"['2', '2', '1', '3', '1', '3']","[110.4029730000002, 110.64993229999891, 111.17002549999961, 111.99398060000021, 112.27400810000108, 112.46596890000001]",5,6,# # # # # #,None,110.4029730000002,110.64993229999891,111.17002549999961,111.99398060000021,112.27400810000108,112.46596890000001,0.2609015999987605,0.24695929999870714,0.5200932000007015,0.8239551000006031,0.2800275000008696,0.1919607999989239
132,20,0.0,2,False,0.0,None,right,False,2,1,0,enc,0,0,0,[],[],5,6,3 4 2 3 1 4,4,0.0,0.0,0.0,0.0,0.0,0.0,0,0.0,0.0,0.0,0.0,0.0
133,21,8.751955399999133,2,True,0.5,acc,right,False,2,1,6,ret,1,10,0,"['4', '1', '3', '2', '4', '3']","[121.18602610000016, 121.73806440000044, 125.06596680000075, 125.57003260000056, 129.68989099999817, 129.9379814999993]",5,6,# # # # # #,None,121.18602610000016,121.73806440000044,125.06596680000075,125.57003260000056,129.68989099999817,129.9379814999993,2.2200572000001557,0.5520383000002766,3.327902400000312,0.5040657999998075,4.119858399997611,0.2480905000011262
134,22,0.0,3,False,0.0,None,right,False,2,1,0,enc,0,0,0,[],[],5,6,2 3 3 3 4 2,6,0.0,0.0,0.0,0.0,0.0,0.0,0,0.0,0.0,0.0,0.0,0.0
135,23,11.903975999997783,3,True,0.5,acc,right,True,2,1,4,ret,1,4,0,"['2', '4', '4', '3', '2', '2']","[138.07393850000153, 139.28991440000027, 146.2659085999985, 149.2819277999988, 149.74581169999874, 149.97791449999932]",5,6,# # # # # #,None,138.07393850000153,139.28991440000027,146.2659085999985,149.2819277999988,149.74581169999874,149.97791449999932,1.6359570000022359,1.215975899998739,6.97599419999824,3.0160192000003008,0.46388389999992796,0.23210280000057537
136,0,0.0,2,False,0.0,None,right,False,2,1,0,enc,0,0,1,[],[],6,6,2 3 1 1 2 3,4,0.0,0.0,0.0,0.0,0.0,0.0,0,0.0,0.0,0.0,0.0,0.0
137,1,1.3999675999984902,2,True,0.5,acc,right,False,2,1,6,ret,1,10,1,"['2', '3', '1', '1', '2', '3']","[6.633742699999857, 6.970401799997489, 7.337777099997766, 7.585634699997172, 7.83377499999915, 8.033710299998347]",6,6,# # # # # #,None,6.633742699999857,6.970401799997489,7.337777099997766,7.585634699997172,7.83377499999915,8.033710299998347,NaN,0.33665909999763244,0.3673753000002762,0.24785759999940637,0.24814030000197818,0.199935299999197
138,2,0.0,3,False,0.0,None,right,False,2,1,0,enc,0,0,1,[],[],6,6,2 3 3 4 2 2,6,0.0,0.0,0.0,0.0,0.0,0.0,0,0.0,0.0,0.0,0.0,0.0
139,3,9.092071999999462,3,True,0.5,acc,right,True,2,1,5,ret,1,5,1,"['2', '2', '3', '4', '2', '2']","[8.061564299998281, 14.00968649999777, 14.769715599999472, 16.577705399999104, 16.977685499998188, 17.153636299997743]",6,6,# # # # # #,None,8.061564299998281,14.00968649999777,14.769715599999472,16.577705399999104,16.977685499998188,17.153636299997743,-6.472146000000066,5.948122199999489,0.7600291000017023,1.807989799999632,0.3999800999990839,0.17595079999955487
140,4,0.0,2,False,0.0,None,right,False,2,1,0,enc,0,0,0,[],[],6,6,3 1 2 4 4 4,4,0.0,0.0,0.0,0.0,0.0,0.0,0,0.0,0.0,0.0,0.0,0.0
141,5,3.4719783000000466,2,True,0.5,acc,right,False,2,1,6,ret,1,10,0,"['4', '4', '4', '2', '1', '3']","[25.617697300000145, 25.94577329999811, 27.233803899998748, 27.81769279999935, 28.92977450000035, 29.08967560000019]",6,6,# # # # # #,None,25.617697300000145,25.94577329999811,27.233803899998748,27.81769279999935,28.92977450000035,29.08967560000019,1.9640610000024026,0.32807599999796366,1.2880306000006385,0.583888900000602,1.1120817000009993,0.1599010999998427
142,6,0.0,3,False,0.0,None,right,False,2,1,0,enc,0,0,1,[],[],6,6,3 3 1 3 2 2,6,0.0,0.0,0.0,0.0,0.0,0.0,0,0.0,0.0,0.0,0.0,0.0
143,7,2.079972199997429,3,True,0.5,acc,right,False,2,1,6,ret,1,10,1,"['3', '3', '1', '3', '2', '2']","[35.64966970000023, 36.17824859999746, 36.60160189999806, 37.20165359999737, 37.52967709999939, 37.72964189999766]",6,6,# # # # # #,None,35.64966970000023,36.17824859999746,36.60160189999806,37.20165359999737,37.52967709999939,37.72964189999766,0.05999410000003991,0.5285788999972283,0.4233533000005991,0.6000516999993124,0.3280235000020184,0.19996479999826988
144,8,0.0,2,False,0.0,None,right,False,2,1,0,enc,0,0,1,[],[],6,6,1 2 2 2 4 1,4,0.0,0.0,0.0,0.0,0.0,0.0,0,0.0,0.0,0.0,0.0,0.0
145,9,2.2000786999997217,2,True,0.5,acc,right,False,2,1,6,ret,1,10,1,"['1', '2', '2', '2', '4', '1']","[45.8416404999989, 46.08165519999966, 46.67368389999683, 46.94551270000011, 47.649714199997106, 48.041719199998624]",6,6,# # # # # #,None,45.8416404999989,46.08165519999966,46.67368389999683,46.94551270000011,47.649714199997106,48.041719199998624,1.6119986000012432,0.24001470000075642,0.5920286999971722,0.27182880000327714,0.7042014999969979,0.39200500000151806
146,10,0.0,3,False,0.0,None,right,False,2,1,0,enc,0,0,1,[],[],6,6,3 1 4 4 2 4,6,0.0,0.0,0.0,0.0,0.0,0.0,0,0.0,0.0,0.0,0.0,0.0
147,11,1.727985900000931,3,True,0.5,acc,right,False,2,1,6,ret,1,10,1,"['3', '1', '4', '4', '2', '4']","[54.46563369999785, 54.793731099998695, 55.1864585000003, 55.66563969999697, 55.96969379999791, 56.19361959999878]",6,6,# # # # # #,None,54.46563369999785,54.793731099998695,55.1864585000003,55.66563969999697,55.96969379999791,56.19361959999878,-0.0760855000007723,0.32809740000084275,0.3927274000016041,0.47918119999667397,0.3040541000009398,0.22392580000087037
148,12,0.0,3,False,0.0,None,right,False,2,1,0,enc,0,0,0,[],[],6,6,3 4 1 3 4 2,6,0.0,0.0,0.0,0.0,0.0,0.0,0,0.0,0.0,0.0,0.0,0.0
149,13,2.775908600000548,3,True,0.5,acc,right,False,2,1,6,ret,1,10,0,"['2', '4', '3', '1', '4', '3']","[64.8975810999982, 65.24957249999716, 65.84957500000019, 67.21771159999844, 67.5135283999989, 67.67348969999875]",6,6,# # # # # #,None,64.8975810999982,65.24957249999716,65.84957500000019,67.21771159999844,67.5135283999989,67.67348969999875,2.203961499999423,0.35199139999895124,0.6000025000030291,1.3681365999982518,0.2958168000004662,0.15996129999984987
150,14,0.0,3,False,0.0,None,right,False,2,1,0,enc,0,0,0,[],[],6,6,1 2 1 3 1 1,6,0.0,0.0,0.0,0.0,0.0,0.0,0,0.0,0.0,0.0,0.0,0.0
151,15,4.551830699998392,3,True,0.5,acc,right,False,2,1,6,ret,1,10,0,"['1', '1', '3', '1', '2', '1']","[74.81761879999976, 75.0176821999994, 75.40965649999998, 79.08958059999713, 79.2019849999997, 79.36944949999815]",6,6,# # # # # #,None,74.81761879999976,75.0176821999994,75.40965649999998,79.08958059999713,79.2019849999997,79.36944949999815,0.6441291000010096,0.2000633999996353,0.39197430000058375,3.6799240999971516,0.11240440000256058,0.16746449999845936
152,16,0.0,2,False,0.0,None,right,False,2,1,0,enc,0,0,1,[],[],6,6,2 1 4 3 3 2,4,0.0,0.0,0.0,0.0,0.0,0.0,0,0.0,0.0,0.0,0.0,0.0
153,17,1.9120724000022165,2,True,0.5,acc,right,False,2,1,6,ret,1,10,1,"['2', '1', '4', '3', '3', '2']","[88.44159799999761, 88.81780529999742, 89.3215633999971, 89.68154579999828, 90.02560299999823, 90.35367039999983]",6,6,# # # # # #,None,88.44159799999761,88.81780529999742,89.3215633999971,89.68154579999828,90.02560299999823,90.35367039999983,2.5721484999994573,0.3762072999998054,0.5037580999996862,0.3599824000011722,0.344057199999952,0.3280674000016006
154,18,0.0,2,False,0.0,None,right,False,2,1,0,enc,0,0,0,[],[],6,6,1 4 4 1 2 3,4,0.0,0.0,0.0,0.0,0.0,0.0,0,0.0,0.0,0.0,0.0,0.0
155,19,5.648114199997507,2,True,0.5,acc,right,False,2,1,6,ret,1,10,0,"['3', '2', '1', '4', '4', '1']","[99.04150730000038, 99.55358820000038, 103.92957709999973, 104.21740649999992, 104.49755359999835, 104.68962149999788]",6,6,# # # # # #,None,99.04150730000038,99.55358820000038,103.92957709999973,104.21740649999992,104.49755359999835,104.68962149999788,2.1878369000005478,0.5120809000000008,4.375988899999356,0.2878294000001915,0.28014709999843035,0.1920678999995289
156,20,0.0,2,False,0.0,None,right,False,2,1,0,enc,0,0,0,[],[],6,6,2 1 2 3 4 4,4,0.0,0.0,0.0,0.0,0.0,0.0,0,0.0,0.0,0.0,0.0,0.0
157,21,3.823961499998404,2,True,0.5,acc,right,False,2,1,6,ret,1,10,0,"['4', '4', '3', '2', '1', '2']","[113.00954089999868, 113.32148559999769, 115.54545519999738, 115.96949399999721, 116.68163209999693, 116.83350239999709]",6,6,# # # # # #,None,113.00954089999868,113.32148559999769,115.54545519999738,115.96949399999721,116.68163209999693,116.83350239999709,1.8199194000007992,0.3119446999990032,2.223969599999691,0.42403879999983474,0.71213809999972,0.1518703000001551
158,22,0.0,3,False,0.0,None,right,False,2,1,0,enc,0,0,0,[],[],6,6,3 1 3 4 2 3,6,0.0,0.0,0.0,0.0,0.0,0.0,0,0.0,0.0,0.0,0.0,0.0
159,23,5.096010499997647,3,True,0.5,acc,right,True,2,1,3,ret,1,3,0,"['3', '2', '4', '1', '3', '1']","[123.92947869999989, 124.56962449999992, 124.90558129999772, 128.57782529999895, 128.76156929999706, 129.02548919999754]",6,6,# # # # # #,None,123.92947869999989,124.56962449999992,124.90558129999772,128.57782529999895,128.76156929999706,129.02548919999754,0.5959763000028033,0.6401458000000275,0.3359567999978026,3.6722440000012284,0.1837439999981143,0.2639199000004737
160,0,0.0,2,False,0.0,None,right,False,2,1,0,enc,0,0,1,[],[],7,6,2 4 4 2 1 3,4,0.0,0.0,0.0,0.0,0.0,0.0,0,0.0,0.0,0.0,0.0,0.0
161,1,1.768031200001133,2,True,0.5,acc,right,False,2,1,6,ret,1,10,1,"['2', '4', '4', '2', '1', '3']","[6.378055900000618, 6.7379919000013615, 6.969995300001756, 7.626040400002239, 7.986048099999607, 8.14608710000175]",7,6,# # # # # #,None,6.378055900000618,6.7379919000013615,6.969995300001756,7.626040400002239,7.986048099999607,8.14608710000175,NaN,0.35993600000074366,0.23200340000039432,0.6560451000004832,0.36000769999736804,0.16003900000214344
162,2,0.0,3,False,0.0,None,right,False,2,1,0,enc,0,0,1,[],[],7,6,2 4 3 1 4 4,6,0.0,0.0,0.0,0.0,0.0,0.0,0,0.0,0.0,0.0,0.0,0.0
163,3,1.864089599999716,3,True,0.5,acc,right,False,2,1,6,ret,1,10,1,"['2', '4', '3', '1', '4', '4']","[13.994001999999455, 14.258032000001549, 14.722102600000653, 15.03394169999956, 15.610800900001777, 15.85809159999917]",7,6,# # # # # #,None,13.994001999999455,14.258032000001549,14.722102600000653,15.03394169999956,15.610800900001777,15.85809159999917,-0.6520851000022958,0.2640300000020943,0.46407059999910416,0.311839099998906,0.5768592000022181,0.24729069999739295
164,4,0.0,3,False,0.0,None,right,False,2,1,0,enc,0,0,1,[],[],7,6,3 3 4 4 4 1,6,0.0,0.0,0.0,0.0,0.0,0.0,0,0.0,0.0,0.0,0.0,0.0
165,5,1.6407280999992508,3,True,0.5,acc,right,False,2,1,6,ret,1,10,1,"['3', '3', '4', '4', '4', '1']","[22.594011100001808, 22.89001619999908, 23.34612019999986, 23.73801530000128, 23.97807730000204, 24.23473920000106]",7,6,# # # # # #,None,22.594011100001808,22.89001619999908,23.34612019999986,23.73801530000128,23.97807730000204,24.23473920000106,0.2359195000026375,0.29600509999727365,0.4561040000007779,0.39189510000142036,0.24006200000076205,0.2566618999990169
166,6,0.0,2,False,0.0,None,right,False,2,1,0,enc,0,0,1,[],[],7,6,4 1 2 3 3 2,4,0.0,0.0,0.0,0.0,0.0,0.0,0,0.0,0.0,0.0,0.0,0.0
167,7,2.016212700000324,2,True,0.5,acc,right,False,2,1,6,ret,1,10,1,"['4', '1', '2', '3', '3', '2']","[33.041861900001095, 33.43414320000011, 34.24272120000023, 34.55435260000013, 34.81040529999882, 35.05807460000142]",7,6,# # # # # #,None,33.041861900001095,33.43414320000011,34.24272120000023,34.55435260000013,34.81040529999882,35.05807460000142,2.3071227000000363,0.39228129999901284,0.808578000000125,0.31163139999989653,0.2560526999986905,0.2476693000025989
168,8,0.0,3,False,0.0,None,right,False,2,1,0,enc,0,0,0,[],[],7,6,3 4 2 1 2 2,6,0.0,0.0,0.0,0.0,0.0,0.0,0,0.0,0.0,0.0,0.0,0.0
169,9,3.912007599999925,3,True,0.5,acc,right,False,2,1,6,ret,1,10,0,"['2', '2', '1', '2', '4', '3']","[41.42599980000159, 41.64983500000017, 41.89008770000146, 43.77000229999976, 45.12207440000202, 45.338007400001516]",7,6,# # # # # #,None,41.42599980000159,41.64983500000017,41.89008770000146,43.77000229999976,45.12207440000202,45.338007400001516,-0.13207479999982752,0.22383519999857526,0.2402527000012924,1.8799145999983011,1.3520721000022604,0.21593299999949522
170,10,0.0,2,False,0.0,None,right,False,2,1,0,enc,0,0,0,[],[],7,6,4 4 3 4 3 3,4,0.0,0.0,0.0,0.0,0.0,0.0,0,0.0,0.0,0.0,0.0,0.0
171,11,3.079905900001904,2,True,0.5,acc,right,False,2,1,6,ret,1,10,0,"['3', '3', '4', '3', '4', '4']","[53.578103399999236, 53.881820999999036, 55.36995329999991, 55.59396470000138, 56.45000230000005, 56.65800930000114]",7,6,# # # # # #,None,53.578103399999236,53.881820999999036,55.36995329999991,55.59396470000138,56.45000230000005,56.65800930000114,1.7400959999977204,0.30371759999979986,1.4881323000008706,0.2240114000014728,0.8560375999986718,0.20800700000108918
172,12,0.0,2,False,0.0,None,right,False,2,1,0,enc,0,0,0,[],[],7,6,4 1 4 1 4 2,4,0.0,0.0,0.0,0.0,0.0,0.0,0,0.0,0.0,0.0,0.0,0.0
173,13,1.5920518999992057,2,True,0.5,acc,right,False,2,1,6,ret,1,10,0,"['2', '4', '1', '4', '1', '4']","[65.06588720000218, 65.39388510000208, 66.02611400000023, 66.23396000000139, 66.51404270000057, 66.65793910000139]",7,6,# # # # # #,None,65.06588720000218,65.39388510000208,66.02611400000023,66.23396000000139,66.51404270000057,66.65793910000139,1.90787790000104,0.32799789999990026,0.6322288999981538,0.2078460000011546,0.2800826999991841,0.14389640000081272
174,14,0.0,3,False,0.0,None,right,False,2,1,0,enc,0,0,1,[],[],7,6,2 1 4 3 1 2,6,0.0,0.0,0.0,0.0,0.0,0.0,0,0.0,0.0,0.0,0.0,0.0
175,15,5.904139599999327,3,True,0.5,acc,right,True,2,1,4,ret,1,4,1,"['4', '1', '2', '3', '1', '2']","[75.25803400000223, 76.47393039999952, 77.07392280000204, 80.18601730000228, 80.81792499999938, 81.16217360000155]",7,6,# # # # # #,None,75.25803400000223,76.47393039999952,77.07392280000204,80.18601730000228,80.81792499999938,81.16217360000155,2.1000949000008404,1.2158963999972912,0.5999924000025203,3.1120945000002393,0.6319076999971003,0.3442486000021745
176,16,0.0,2,False,0.0,None,right,False,2,1,0,enc,0,0,0,[],[],7,6,4 4 4 2 4 2,4,0.0,0.0,0.0,0.0,0.0,0.0,0,0.0,0.0,0.0,0.0,0.0
177,17,1.4160216999989643,2,True,0.5,acc,right,False,2,1,6,ret,1,10,0,"['2', '4', '2', '4', '4', '4']","[90.05789139999979, 90.29798080000182, 90.65792789999978, 90.93787349999911, 91.2339862000008, 91.47391309999875]",7,6,# # # # # #,None,90.05789139999979,90.29798080000182,90.65792789999978,90.93787349999911,91.2339862000008,91.47391309999875,2.3957177999982378,0.24008940000203438,0.35994709999795305,0.279945599999337,0.2961127000016859,0.23992689999795402
178,18,0.0,3,False,0.0,None,right,False,2,1,0,enc,0,0,0,[],[],7,6,3 1 4 4 2 4,6,0.0,0.0,0.0,0.0,0.0,0.0,0,0.0,0.0,0.0,0.0,0.0
179,19,3.063968800001021,3,True,0.5,acc,right,False,2,1,6,ret,1,10,0,"['4', '2', '4', '4', '1', '3']","[100.22587550000026, 100.60988790000192, 100.94587120000142, 102.73795539999992, 103.05782470000122, 103.28984430000128]",7,6,# # # # # #,None,100.22587550000026,100.60988790000192,100.94587120000142,102.73795539999992,103.05782470000122,103.28984430000128,2.251962400001503,0.3840124000016658,0.33598329999949783,1.7920841999984987,0.31986930000130087,0.23201960000005784
180,20,0.0,3,False,0.0,None,right,False,2,1,0,enc,0,0,0,[],[],7,6,1 4 2 2 3 4,6,0.0,0.0,0.0,0.0,0.0,0.0,0,0.0,0.0,0.0,0.0,0.0
181,21,6.527993799998512,3,True,0.5,acc,right,True,2,1,4,ret,1,4,0,"['4', '3', '2', '4', '2', '1']","[111.39382230000047, 111.68986969999969, 112.92175850000058, 116.73786250000194, 117.77786040000137, 117.92181609999898]",7,6,# # # # # #,None,111.39382230000047,111.68986969999969,112.92175850000058,116.73786250000194,117.77786040000137,117.92181609999898,1.6039779999991879,0.2960473999992246,1.2318888000008883,3.81610400000136,1.0399978999994346,0.14395569999760482
182,22,0.0,2,False,0.0,None,right,False,2,1,0,enc,0,0,1,[],[],7,6,1 1 2 1 1 3,4,0.0,0.0,0.0,0.0,0.0,0.0,0,0.0,0.0,0.0,0.0,0.0
183,23,2.264503999998851,2,True,0.5,acc,right,False,2,1,6,ret,1,10,1,"['1', '1', '2', '1', '1', '3']","[126.33781330000056, 126.56176939999932, 127.32988420000038, 127.4898205999998, 128.4819051000013, 128.6023172999994]",7,6,# # # # # #,None,126.33781330000056,126.56176939999932,127.32988420000038,127.4898205999998,128.4819051000013,128.6023172999994,1.9159972000015841,0.22395609999875887,0.768114800001058,0.15993639999942388,0.9920845000015106,0.12041219999809982
184,0,0.0,2,False,0.0,None,right,False,2,1,0,enc,0,0,1,[],[],8,6,4 2 3 2 2 2,4,0.0,0.0,0.0,0.0,0.0,0.0,0,0.0,0.0,0.0,0.0,0.0
185,1,1.6800586999997904,2,True,0.5,acc,right,False,2,1,6,ret,1,10,1,"['4', '2', '3', '2', '2', '2']","[6.676853000000847, 7.124810299999808, 7.43682489999992, 7.828965600001538, 8.117050000000745, 8.356911700000637]",8,6,# # # # # #,None,6.676853000000847,7.124810299999808,7.43682489999992,7.828965600001538,8.117050000000745,8.356911700000637,NaN,0.4479572999989614,0.3120146000001114,0.3921407000016188,0.28808439999920665,0.23986169999989215
186,2,0.0,2,False,0.0,None,right,False,2,1,0,enc,0,0,1,[],[],8,6,1 1 1 3 1 4,4,0.0,0.0,0.0,0.0,0.0,0.0,0,0.0,0.0,0.0,0.0,0.0
187,3,1.1520535000017844,2,True,0.5,acc,right,False,2,1,6,ret,1,10,1,"['1', '1', '1', '3', '1', '4']","[16.73288820000016, 16.917468499999814, 17.292936400001054, 17.47693369999979, 17.684971500002575, 17.884941700001946]",8,6,# # # # # #,None,16.73288820000016,16.917468499999814,17.292936400001054,17.47693369999979,17.684971500002575,17.884941700001946,1.875976499999524,0.1845802999996522,0.3754679000012402,0.1839972999987367,0.20803780000278493,0.19997019999937038
188,4,0.0,2,False,0.0,None,right,False,2,1,0,enc,0,0,0,[],[],8,6,2 1 2 1 3 4,4,0.0,0.0,0.0,0.0,0.0,0.0,0,0.0,0.0,0.0,0.0,0.0
189,5,1.8400318999993035,2,True,0.5,acc,right,False,2,1,6,ret,1,10,0,"['4', '3', '1', '2', '1', '2']","[28.252845200000593, 28.445806899999297, 29.476862300001812, 29.741118100002495, 29.92502230000173, 30.092877099999896]",8,6,# # # # # #,None,28.252845200000593,28.445806899999297,29.476862300001812,29.741118100002495,29.92502230000173,30.092877099999896,3.867903499998647,0.19296169999870472,1.031055400002515,0.26425580000068294,0.18390419999923324,0.16785479999816744
190,6,0.0,2,False,0.0,None,right,False,2,1,0,enc,0,0,1,[],[],8,6,1 3 1 4 2 3,4,0.0,0.0,0.0,0.0,0.0,0.0,0,0.0,0.0,0.0,0.0,0.0
191,7,1.8001527000014903,2,True,0.5,acc,right,False,2,1,6,ret,1,10,1,"['1', '3', '1', '4', '2', '3']","[38.62082300000111, 38.99695010000141, 39.332824700002675, 39.700883800000156, 40.164830199999415, 40.4209757000026]",8,6,# # # # # #,None,38.62082300000111,38.99695010000141,39.332824700002675,39.700883800000156,40.164830199999415,40.4209757000026,2.027945900001214,0.37612710000030347,0.33587460000126157,0.3680590999974811,0.4639463999992586,0.2561455000031856
192,8,0.0,3,False,0.0,None,right,False,2,1,0,enc,0,0,1,[],[],8,6,1 4 3 3 2 2,6,0.0,0.0,0.0,0.0,0.0,0.0,0,0.0,0.0,0.0,0.0,0.0
193,9,1.608038800000941,3,True,0.5,acc,right,False,2,1,6,ret,1,10,1,"['1', '4', '3', '3', '2', '2']","[46.85286070000075, 47.1648454999995, 47.53290530000231, 47.980796399999235, 48.260921100001724, 48.46089950000169]",8,6,# # # # # #,None,46.85286070000075,47.1648454999995,47.53290530000231,47.980796399999235,48.260921100001724,48.46089950000169,-0.06811500000185333,0.31198479999875417,0.36805980000281124,0.447891099996923,0.2801247000024887,0.19997839999996359
194,10,0.0,2,False,0.0,None,right,False,2,1,0,enc,0,0,0,[],[],8,6,4 3 3 4 4 1,4,0.0,0.0,0.0,0.0,0.0,0.0,0,0.0,0.0,0.0,0.0,0.0
195,11,4.479958899999474,2,True,0.5,acc,right,False,2,1,6,ret,1,10,0,"['1', '4', '4', '3', '3', '4']","[57.8128140000008, 58.07686530000137, 61.13278899999932, 61.80482210000264, 62.0368469999994, 62.29277290000027]",8,6,# # # # # #,None,57.8128140000008,58.07686530000137,61.13278899999932,61.80482210000264,62.0368469999994,62.29277290000027,2.8519144999991113,0.264051300000574,3.0559236999979476,0.6720331000033184,0.2320248999967589,0.2559259000008751
196,12,0.0,2,False,0.0,None,right,False,2,1,0,enc,0,0,0,[],[],8,6,3 1 3 2 4 2,4,0.0,0.0,0.0,0.0,0.0,0.0,0,0.0,0.0,0.0,0.0,0.0
197,13,5.360076099997968,2,True,0.5,acc,right,False,2,1,6,ret,1,10,0,"['2', '4', '2', '3', '1', '3']","[72.54878480000116, 72.79739830000108, 76.02059880000161, 76.33282900000268, 77.79676860000109, 77.90886089999913]",8,6,# # # # # #,None,72.54878480000116,72.79739830000108,76.02059880000161,76.33282900000268,77.79676860000109,77.90886089999913,3.7560119000008854,0.24861349999991944,3.22320050000053,0.3122302000010677,1.4639395999984117,0.11209229999803938
198,14,0.0,3,False,0.0,None,right,False,2,1,0,enc,0,0,1,[],[],8,6,1 3 2 3 3 3,6,0.0,0.0,0.0,0.0,0.0,0.0,0,0.0,0.0,0.0,0.0,0.0
199,15,1.2801184999989346,3,True,0.5,acc,right,False,2,1,6,ret,1,10,1,"['1', '3', '2', '3', '3', '3']","[84.64471810000032, 84.84473179999986, 85.1328293000006, 85.46873770000093, 85.70083449999947, 85.92483659999925]",8,6,# # # # # #,None,84.64471810000032,84.84473179999986,85.1328293000006,85.46873770000093,85.70083449999947,85.92483659999925,0.2358572000011918,0.20001369999954477,0.2880975000007311,0.33590840000033495,0.23209679999854416,0.2240020999997796
200,16,0.0,3,False,0.0,None,right,False,2,1,0,enc,0,0,1,[],[],8,6,4 2 4 4 2 4,6,0.0,0.0,0.0,0.0,0.0,0.0,0,0.0,0.0,0.0,0.0,0.0
201,17,1.8160915000007665,3,True,0.5,acc,right,False,2,1,6,ret,1,10,1,"['4', '2', '4', '4', '2', '4']","[92.94878339999923, 93.32477330000256, 93.60481129999971, 94.1487128000008, 94.50079829999959, 94.7648749]",8,6,# # # # # #,None,92.94878339999923,93.32477330000256,93.60481129999971,94.1487128000008,94.50079829999959,94.7648749,0.5239467999999761,0.3759899000033329,0.2800379999971483,0.5439015000010841,0.35208549999879324,0.2640766000004078
202,18,0.0,3,False,0.0,None,right,False,2,1,0,enc,0,0,0,[],[],8,6,1 2 2 3 1 1,6,0.0,0.0,0.0,0.0,0.0,0.0,0,0.0,0.0,0.0,0.0,0.0
203,19,2.543903899997531,3,True,0.5,acc,right,True,2,1,5,ret,1,5,0,"['1', '1', '3', '2', '2', '4']","[101.4127976000018, 101.61304960000052, 101.8688628000018, 103.5486622999997, 103.77260240000032, 103.95670149999933]",8,6,# # # # # #,None,101.4127976000018,101.61304960000052,101.8688628000018,103.5486622999997,103.77260240000032,103.95670149999933,0.14792270000179997,0.20025199999872711,0.2558132000012847,1.6797994999978982,0.22394010000061826,0.18409909999900265
204,20,0.0,3,False,0.0,None,right,False,2,1,0,enc,0,0,0,[],[],8,6,2 3 1 1 3 4,6,0.0,0.0,0.0,0.0,0.0,0.0,0,0.0,0.0,0.0,0.0,0.0
205,21,8.448069199999736,3,True,0.5,acc,right,True,2,1,2,ret,1,2,0,"['4', '2', '1', '2', '2', '1']","[111.43672430000152, 112.07683140000154, 113.2127900000014, 119.5246745000004, 119.73254910000105, 119.88479350000125]",8,6,# # # # # #,None,111.43672430000152,112.07683140000154,113.2127900000014,119.5246745000004,119.73254910000105,119.88479350000125,0.9800228000021889,0.6401071000000229,1.1359585999998671,6.311884499998996,0.2078746000006504,0.15224440000019968
206,22,0.0,3,False,0.0,None,right,False,2,1,0,enc,0,0,0,[],[],8,6,4 3 2 2 1 3,6,0.0,0.0,0.0,0.0,0.0,0.0,0,0.0,0.0,0.0,0.0,0.0
207,23,4.855638199998793,3,True,0.5,acc,right,True,2,1,4,ret,1,4,0,"['3', '1', '2', '1', '2', '4']","[130.07728580000185, 130.9966013000012, 131.31704150000223, 134.10065530000065, 134.5979189000027, 134.93292400000064]",8,6,# # # # # #,None,130.07728580000185,130.9966013000012,131.31704150000223,134.10065530000065,134.5979189000027,134.93292400000064,3.6924923000005947,0.9193154999993567,0.32044020000103046,2.7836137999984203,0.49726360000204295,0.33500509999794303
