,MT,Unnamed: 0,Unnamed: 0.1,Unnamed: 0.1.1,Unnamed: 0.1.1.1,Unnamed: 0.1.1.1.1,Unnamed: 0.1.1.1.1.1,Unnamed: 0.1.1.1.1.1.1,Unnamed: 0.1.1.1.1.1.1.1,Unnamed: 0.1.1.1.1.1.1.1.1,chunk,display_trial_feedback,feedback_dur,feedback_type,hand,is_error,item_dur,iti_dur,number_correct,phase,phase_type,points,recall_dir,response,response_time,run_number,seq_length,seq_str,trial_dur
0,0.0,0,0.0,0.0,0.0,0.0,0.0,0.0,0.0,0.0,3,False,0.0,None,right,False,2,1,0,enc,0,0,1,[],[],1,6,2 2 2 4 4 3,6
1,2.9350260999999587,1,1.0,1.0,1.0,1.0,1.0,1.0,1.0,1.0,3,True,0.5,acc,right,False,2,1,6,ret,1,10,1,"['2', '2', '2', '4', '4', '3']","[5.304026800000429, 5.599025200001051, 5.943006200002856, 7.19102820000262, 7.927536900002451, 8.239052900000388]",1,6,# # # # # #,None
2,0.0,2,2.0,2.0,2.0,2.0,2.0,2.0,2.0,2.0,3,False,0.0,None,right,False,2,1,0,enc,0,0,1,[],[],1,6,1 3 1 3 1 2,6
3,3.944002500000353,3,3.0,3.0,3.0,3.0,3.0,3.0,3.0,3.0,3,True,0.5,acc,right,False,2,1,6,ret,1,10,1,"['1', '3', '1', '3', '1', '2']","[14.910992000000988, 15.8550436000005, 16.463009400002193, 17.231009099999937, 18.2310114000029, 18.85499450000134]",1,6,# # # # # #,None
4,0.0,4,4.0,4.0,4.0,4.0,4.0,4.0,4.0,4.0,3,False,0.0,None,right,False,2,1,0,enc,0,0,0,[],[],1,6,4 1 4 3 4 3,6
5,10.343947900000783,5,5.0,5.0,5.0,5.0,5.0,5.0,5.0,5.0,3,True,0.5,acc,right,True,2,1,1,ret,1,1,0,"['4', '1', '4', '3', '1', '3']","[25.247063900002104, 25.83234950000042, 26.503012100001797, 34.37486990000252, 35.055013700002746, 35.59101180000289]",1,6,# # # # # #,None
6,0.0,6,6.0,6.0,6.0,6.0,6.0,6.0,6.0,6.0,2,False,0.0,None,right,False,2,1,0,enc,0,0,1,[],[],1,6,4 3 4 1 4 4,4
7,2.7599864000003445,7,7.0,7.0,7.0,7.0,7.0,7.0,7.0,7.0,2,True,0.5,acc,right,False,2,1,6,ret,1,10,1,"['4', '3', '4', '1', '4', '4']","[44.567084900001646, 45.15900099999999, 45.711109200001374, 46.40705870000238, 46.911056400000234, 47.32707130000199]",1,6,# # # # # #,None
8,0.0,8,8.0,8.0,8.0,8.0,8.0,8.0,8.0,8.0,2,False,0.0,None,right,False,2,1,0,enc,0,0,0,[],[],1,6,4 1 3 3 1 4,4
9,7.280041599999095,9,9.0,9.0,9.0,9.0,9.0,9.0,9.0,9.0,2,True,0.5,acc,right,True,2,1,4,ret,1,4,0,"['4', '1', '3', '3', '4', '1']","[56.6629079000013, 57.518996900002094, 58.894970600002125, 59.37502190000305, 63.42292170000292, 63.942949500000395]",1,6,# # # # # #,None
10,0.0,10,10.0,10.0,10.0,10.0,10.0,10.0,10.0,10.0,2,False,0.0,None,right,False,2,1,0,enc,0,0,0,[],[],1,6,1 3 4 2 2 2,4
11,7.888022899998759,11,11.0,11.0,11.0,11.0,11.0,11.0,11.0,11.0,2,True,0.5,acc,right,True,2,1,5,ret,1,5,0,"['2', '2', '4', '4', '3', '1']","[75.21483170000283, 75.51896500000294, 76.28694720000203, 80.60698500000217, 82.76691420000134, 83.10285460000159]",1,6,# # # # # #,None
12,0.0,12,12.0,12.0,12.0,12.0,12.0,12.0,12.0,12.0,3,False,0.0,None,right,False,2,1,0,enc,0,0,0,[],[],1,6,4 1 1 1 4 3,6
13,4.288006499999028,13,13.0,13.0,13.0,13.0,13.0,13.0,13.0,13.0,3,True,0.5,acc,right,False,2,1,6,ret,1,10,0,"['3', '4', '1', '1', '1', '4']","[91.91892940000253, 92.48691510000208, 93.02286640000239, 95.70306300000084, 95.95893700000306, 96.20693590000155]",1,6,# # # # # #,None
14,0.0,14,14.0,14.0,14.0,14.0,14.0,14.0,14.0,14.0,2,False,0.0,None,right,False,2,1,0,enc,0,0,1,[],[],1,6,1 2 3 4 3 1,4
15,2.32000859999971,15,15.0,15.0,15.0,15.0,15.0,15.0,15.0,15.0,2,True,0.5,acc,right,False,2,1,6,ret,1,10,1,"['1', '2', '3', '4', '3', '1']","[105.05486400000154, 105.4148617000028, 105.87962740000148, 106.37487870000041, 106.99078420000296, 107.37487260000125]",1,6,# # # # # #,None
16,0.0,16,16.0,16.0,16.0,16.0,16.0,0.0,0.0,,3,False,0.0,None,right,False,2,1,0,enc,0,0,1,[],[],1,6,4 2 2 1 1 2,6
17,2.368127900001128,17,17.0,17.0,17.0,17.0,17.0,1.0,1.0,,3,True,0.5,acc,right,False,2,1,6,ret,1,10,1,"['4', '2', '2', '1', '1', '2']","[4.986716399998841, 5.090765199998714, 5.7947473999993235, 6.754823100000067, 6.970740299999306, 7.354844299999968]",1,6,# # # # # #,None
18,0.0,18,18.0,18.0,18.0,18.0,18.0,2.0,2.0,,3,False,0.0,None,right,False,2,1,0,enc,0,0,1,[],[],1,6,3 3 2 2 3 3,6
19,2.9441488000011304,19,19.0,19.0,19.0,19.0,19.0,3.0,3.0,,3,True,0.5,acc,right,True,2,1,5,ret,1,5,1,"['3', '3', '2', '2', '2', '3']","[13.962643499999103, 14.594659300000785, 15.0189117000009, 15.578811100000166, 15.915817199998855, 16.906792300000234]",1,6,# # # # # #,None
20,0.0,20,20.0,20.0,20.0,20.0,20.0,4.0,4.0,,2,False,0.0,None,right,False,2,1,0,enc,0,0,0,[],[],1,6,1 4 4 2 2 1,4
21,6.287997100000213,21,21.0,21.0,21.0,21.0,21.0,5.0,5.0,,2,True,0.5,acc,right,False,2,1,6,ret,1,10,0,"['1', '2', '2', '4', '4', '1']","[27.194609499998478, 28.090897699999914, 31.707702799998515, 32.07462029999806, 33.2348525999987, 33.48260659999869]",1,6,# # # # # #,None
22,0.0,22,22.0,22.0,22.0,22.0,22.0,6.0,6.0,,3,False,0.0,None,right,False,2,1,0,enc,0,0,0,[],[],1,6,2 3 3 2 4 1,6
23,4.001089500001399,23,23.0,23.0,23.0,23.0,23.0,7.0,7.0,,3,True,0.5,acc,right,False,2,1,6,ret,1,10,0,"['1', '4', '2', '3', '3', '2']","[41.38679459999912, 41.86662559999968, 43.04405279999992, 44.62669570000071, 44.99465380000038, 45.38788410000052]",1,6,# # # # # #,None
24,0.0,24,24.0,24.0,24.0,24.0,24.0,8.0,8.0,,2,False,0.0,None,right,False,2,1,0,enc,0,0,0,[],[],1,6,4 3 2 1 3 4,4
25,4.606131699998514,25,25.0,25.0,25.0,25.0,25.0,9.0,9.0,,2,True,0.5,acc,right,False,2,1,6,ret,1,10,0,"['4', '3', '1', '2', '3', '4']","[54.64459039999929, 55.0506979999991, 56.514740799997526, 56.850831600000674, 58.88265719999981, 59.2507220999978]",1,6,# # # # # #,None
26,0.0,26,26.0,26.0,26.0,26.0,26.0,10.0,10.0,,2,False,0.0,None,right,False,2,1,0,enc,0,0,1,[],[],1,6,4 3 3 1 1 2,4
27,2.3600789999982226,27,27.0,27.0,27.0,27.0,27.0,11.0,11.0,,2,True,0.5,acc,right,False,2,1,6,ret,1,10,1,"['4', '3', '3', '1', '1', '2']","[67.94663890000083, 68.33865969999897, 68.75473829999828, 69.1787734999998, 70.1145476999991, 70.30671789999906]",1,6,# # # # # #,None
28,0.0,28,28.0,28.0,28.0,28.0,28.0,12.0,12.0,,3,False,0.0,None,right,False,2,1,0,enc,0,0,0,[],[],1,6,2 3 4 2 2 1,6
29,4.815833199998451,29,29.0,29.0,29.0,29.0,29.0,13.0,13.0,,3,True,0.5,acc,right,True,2,1,4,ret,1,4,0,"['1', '2', '2', '1', '3', '4']","[78.43475849999959, 78.90663719999793, 79.1638146999976, 82.13871989999825, 82.87479019999955, 83.25059169999804]",1,6,# # # # # #,None
30,0.0,30,30.0,30.0,30.0,30.0,30.0,14.0,14.0,,2,False,0.0,None,right,False,2,1,0,enc,0,0,1,[],[],1,6,4 2 3 4 2 1,4
31,3.6559922000014917,31,31.0,31.0,31.0,31.0,31.0,15.0,15.0,,2,True,0.5,acc,right,True,2,1,5,ret,1,5,1,"['4', '3', '3', '4', '2', '1']","[92.35459429999901, 92.85156149999966, 94.3466171, 95.13068239999848, 95.73060160000023, 96.0105865000005]",1,6,# # # # # #,None
32,0.0,32,32.0,32.0,32.0,32.0,32.0,16.0,16.0,,2,False,0.0,None,right,False,2,1,0,enc,0,0,1,[],[],1,6,1 4 1 3 2 4,4
33,2.8481358000026376,33,33.0,33.0,33.0,33.0,33.0,17.0,17.0,,2,True,0.5,acc,right,False,2,1,6,ret,1,10,1,"['1', '4', '1', '3', '2', '4']","[104.81057329999749, 105.17056199999934, 106.01051659999939, 106.35587769999984, 107.36248129999876, 107.65870910000012]",1,6,# # # # # #,None
34,0.0,34,34.0,34.0,34.0,34.0,34.0,18.0,18.0,,3,False,0.0,None,right,False,2,1,0,enc,0,0,0,[],[],1,6,2 3 3 3 3 4,6
35,6.697871500000472,35,35.0,35.0,35.0,35.0,35.0,19.0,19.0,,3,True,0.5,acc,right,True,2,1,5,ret,1,5,0,"['4', '3', '3', '2', '3', '2']","[113.79451899999913, 114.10732279999866, 114.34661190000043, 115.79454790000091, 119.09061709999878, 120.4923904999996]",1,6,# # # # # #,None
36,0.0,36,36.0,36.0,36.0,36.0,36.0,20.0,20.0,,3,False,0.0,None,right,False,2,1,0,enc,0,0,1,[],[],1,6,1 1 3 2 2 4,6
37,1.8397910999992744,37,37.0,37.0,37.0,37.0,37.0,21.0,21.0,,3,True,0.5,acc,right,False,2,1,6,ret,1,10,1,"['1', '1', '3', '2', '2', '4']","[127.16268760000094, 127.45056399999885, 127.91467999999804, 128.4985467999977, 128.76273199999923, 129.0024787000002]",1,6,# # # # # #,None
38,0.0,38,38.0,38.0,38.0,38.0,38.0,22.0,22.0,,2,False,0.0,None,right,False,2,1,0,enc,0,0,0,[],[],1,6,4 1 1 1 4 4,4
39,4.376192899999297,39,39.0,39.0,39.0,39.0,39.0,23.0,23.0,,2,True,0.5,acc,right,False,2,1,6,ret,1,10,0,"['4', '4', '1', '1', '1', '4']","[138.05847989999893, 138.3384288999987, 138.85858329999974, 139.08252809999976, 142.2104193999985, 142.43467279999822]",1,6,# # # # # #,None
40,0.0,40,40.0,40.0,40.0,40.0,0.0,0.0,,,3,False,0.0,None,right,False,2,1,0,enc,0,0,1,[],[],2,6,3 2 2 3 2 3,6
41,2.312054000001808,41,41.0,41.0,41.0,41.0,1.0,1.0,,,3,True,0.5,acc,right,False,2,1,6,ret,1,10,1,"['3', '2', '2', '3', '2', '3']","[5.54903639999975, 5.877164900000935, 6.165238099998533, 7.206078899998829, 7.565141999999469, 7.861090400001558]",2,6,# # # # # #,None
42,0.0,42,42.0,42.0,42.0,42.0,2.0,2.0,,,2,False,0.0,None,right,False,2,1,0,enc,0,0,1,[],[],2,6,2 4 4 4 4 1,4
43,2.0978160999984543,43,43.0,43.0,43.0,43.0,3.0,3.0,,,2,True,0.5,acc,right,False,2,1,6,ret,1,10,1,"['2', '4', '4', '4', '4', '1']","[16.845202500000596, 17.485198900001706, 17.91727059999903, 18.245314899999357, 18.621299499998713, 18.94301859999905]",2,6,# # # # # #,None
44,0.0,44,44.0,44.0,44.0,44.0,4.0,4.0,,,3,False,0.0,None,right,False,2,1,0,enc,0,0,1,[],[],2,6,1 4 1 4 4 3,6
45,1.944141299998592,45,45.0,45.0,45.0,45.0,5.0,5.0,,,3,True,0.5,acc,right,False,2,1,6,ret,1,10,1,"['1', '4', '1', '4', '4', '3']","[25.517213800001628, 25.909236899999087, 26.333217700001114, 26.789382700000715, 27.09352299999955, 27.46135510000022]",2,6,# # # # # #,None
46,0.0,46,46.0,46.0,46.0,46.0,6.0,6.0,,,3,False,0.0,None,right,False,2,1,0,enc,0,0,0,[],[],2,6,1 3 1 3 1 3,6
47,2.568042799997784,47,47.0,47.0,47.0,47.0,7.0,7.0,,,3,True,0.5,acc,right,False,2,1,6,ret,1,10,0,"['3', '1', '3', '1', '3', '1']","[34.48521980000078, 34.90916250000009, 35.3251683999988, 36.33334340000147, 36.70932470000116, 37.05326259999856]",2,6,# # # # # #,None
48,0.0,48,48.0,48.0,48.0,48.0,8.0,8.0,,,2,False,0.0,None,right,False,2,1,0,enc,0,0,0,[],[],2,6,2 1 4 4 4 2,4
49,3.103970299998764,49,49.0,49.0,49.0,49.0,9.0,9.0,,,2,True,0.5,acc,right,False,2,1,6,ret,1,10,0,"['2', '4', '4', '4', '1', '2']","[46.63719610000044, 47.021197400001256, 47.4691770999998, 47.8292005000003, 49.3011617000011, 49.7411663999992]",2,6,# # # # # #,None
50,0.0,50,50.0,50.0,50.0,50.0,10.0,10.0,,,3,False,0.0,None,right,False,2,1,0,enc,0,0,0,[],[],2,6,3 3 4 1 2 3,6
51,2.991950600000564,51,51.0,51.0,51.0,51.0,11.0,11.0,,,3,True,0.5,acc,right,True,2,1,5,ret,1,5,0,"['3', '2', '1', '4', '4', '3']","[56.32513520000066, 56.70921459999954, 57.58917680000013, 58.76544339999964, 59.053413500001625, 59.31708580000122]",2,6,# # # # # #,None
52,0.0,52,52.0,52.0,52.0,52.0,12.0,12.0,,,2,False,0.0,None,right,False,2,1,0,enc,0,0,0,[],[],2,6,4 2 2 2 3 1,4
53,8.704070899999351,53,53.0,53.0,53.0,53.0,13.0,13.0,,,2,True,0.5,acc,right,True,2,1,4,ret,1,4,0,"['1', '3', '4', '4', '2', '4']","[68.85312429999976, 69.2050917000015, 71.22289499999897, 73.86910050000006, 77.14122549999956, 77.55719519999911]",2,6,# # # # # #,None
54,0.0,54,54.0,54.0,54.0,54.0,14.0,14.0,,,3,False,0.0,None,right,False,2,1,0,enc,0,0,1,[],[],2,6,3 2 2 1 1 4,6
55,1.528024799998093,55,55.0,55.0,55.0,55.0,15.0,15.0,,,3,True,0.5,acc,right,False,2,1,6,ret,1,10,1,"['3', '2', '2', '1', '1', '4']","[84.50136560000101, 84.90112370000134, 85.15708369999993, 85.59706010000082, 85.81316119999974, 86.0293903999991]",2,6,# # # # # #,None
56,0.0,56,56.0,56.0,56.0,56.0,16.0,16.0,,,2,False,0.0,None,right,False,2,1,0,enc,0,0,0,[],[],2,6,4 3 2 1 2 2,4
57,4.631999500001257,57,57.0,57.0,57.0,57.0,17.0,17.0,,,2,True,0.5,acc,right,False,2,1,6,ret,1,10,0,"['2', '2', '1', '2', '3', '4']","[95.3892397999989, 95.62923619999856, 96.85309319999942, 97.0453114999982, 99.62907009999981, 100.02123930000016]",2,6,# # # # # #,None
58,0.0,58,58.0,58.0,58.0,58.0,18.0,18.0,,,2,False,0.0,None,right,False,2,1,0,enc,0,0,1,[],[],2,6,3 1 4 4 2 3,4
59,2.4400873000013235,59,59.0,59.0,59.0,59.0,19.0,19.0,,,2,True,0.5,acc,right,False,2,1,6,ret,1,10,1,"['3', '1', '4', '4', '2', '3']","[109.21298019999813, 109.97491779999837, 110.32531730000119, 110.71722139999838, 111.33323290000044, 111.65306749999945]",2,6,# # # # # #,None
60,0.0,60,60.0,60.0,60.0,60.0,20.0,20.0,,,3,False,0.0,None,right,False,2,1,0,enc,0,0,0,[],[],2,6,1 1 4 4 3 2,6
61,3.367869700003212,61,61.0,61.0,61.0,61.0,21.0,21.0,,,3,True,0.5,acc,right,False,2,1,6,ret,1,10,0,"['2', '3', '4', '4', '1', '1']","[121.02109429999837, 121.39710510000077, 121.88507689999824, 123.84497280000141, 124.18899700000111, 124.38896400000158]",2,6,# # # # # #,None
62,0.0,62,62.0,62.0,62.0,62.0,22.0,22.0,,,2,False,0.0,None,right,False,2,1,0,enc,0,0,1,[],[],2,6,4 2 1 2 4 1,4
63,2.5358357999975847,63,63.0,63.0,63.0,63.0,23.0,23.0,,,2,True,0.5,acc,right,False,2,1,6,ret,1,10,1,"['4', '2', '1', '2', '4', '1']","[133.5812216000013, 134.1092462000015, 134.8852268999981, 135.30336909999824, 135.88492649999898, 136.11705739999888]",2,6,# # # # # #,None
64,0.0,64,64.0,64.0,64.0,0.0,0.0,,,,2,False,0.0,None,right,False,2,1,0,enc,0,0,1,[],[],3,6,1 3 3 1 2 3,4
65,1.8561136000025729,65,65.0,65.0,65.0,1.0,1.0,,,,2,True,0.5,acc,right,False,2,1,6,ret,1,10,1,"['1', '3', '3', '1', '2', '3']","[6.568644899998617, 6.832798999999795, 7.1367551000003004, 7.648855100000219, 8.128755400000955, 8.42475850000119]",3,6,# # # # # #,None
66,0.0,66,66.0,66.0,66.0,2.0,2.0,,,,3,False,0.0,None,right,False,2,1,0,enc,0,0,0,[],[],3,6,2 3 1 2 2 1,6
67,6.728098399998999,67,67.0,67.0,67.0,3.0,3.0,,,,3,True,0.5,acc,right,False,2,1,6,ret,1,10,0,"['1', '2', '2', '1', '3', '2']","[16.728709300001356, 17.06469559999823, 17.313638799998444, 22.880734800000937, 23.144811199999822, 23.456807700000354]",3,6,# # # # # #,None
68,0.0,68,68.0,68.0,68.0,4.0,4.0,,,,3,False,0.0,None,right,False,2,1,0,enc,0,0,1,[],[],3,6,4 1 3 2 2 1,6
69,6.015985400001228,69,69.0,69.0,69.0,5.0,5.0,,,,3,True,0.5,acc,right,True,2,1,4,ret,1,4,1,"['4', '3', '1', '2', '2', '1']","[30.224719599998934, 30.544547400000738, 31.848662199998216, 35.85669770000095, 36.0807089000009, 36.24070500000016]",3,6,# # # # # #,None
70,0.0,70,70.0,70.0,70.0,6.0,6.0,,,,2,False,0.0,None,right,False,2,1,0,enc,0,0,0,[],[],3,6,3 4 4 3 4 1,4
71,5.751857700000982,71,71.0,71.0,71.0,7.0,7.0,,,,2,True,0.5,acc,right,False,2,1,6,ret,1,10,0,"['1', '4', '3', '4', '4', '3']","[45.7127459000003, 46.06459410000025, 50.400618899999245, 50.793516400000954, 51.160601999999926, 51.46460360000128]",3,6,# # # # # #,None
72,0.0,72,72.0,72.0,72.0,8.0,8.0,,,,3,False,0.0,None,right,False,2,1,0,enc,0,0,1,[],[],3,6,1 2 2 4 4 3,6
73,1.7597464999998915,73,73.0,73.0,73.0,9.0,9.0,,,,3,True,0.5,acc,right,False,2,1,6,ret,1,10,1,"['1', '2', '2', '4', '4', '3']","[57.83278100000098, 58.144627699999546, 58.43264940000154, 59.024645800000144, 59.31264440000086, 59.59252750000087]",3,6,# # # # # #,None
74,0.0,74,74.0,74.0,74.0,10.0,10.0,,,,2,False,0.0,None,right,False,2,1,0,enc,0,0,0,[],[],3,6,4 4 3 2 3 3,4
75,3.647974300001806,75,75.0,75.0,75.0,11.0,11.0,,,,2,True,0.5,acc,right,False,2,1,6,ret,1,10,0,"['3', '3', '2', '3', '4', '4']","[69.26465729999836, 69.52859819999867, 70.94462520000161, 71.22462190000078, 72.67250670000067, 72.91263160000017]",3,6,# # # # # #,None
76,0.0,76,76.0,76.0,76.0,12.0,12.0,,,,3,False,0.0,None,right,False,2,1,0,enc,0,0,0,[],[],3,6,2 4 3 2 2 4,6
77,10.048021599999627,77,77.0,77.0,77.0,13.0,13.0,,,,3,True,0.5,acc,right,True,2,1,0,ret,1,0,0,"['2', '3', '3', '1', '2', '4']","[84.89659440000105, 86.26463560000047, 86.52863680000155, 92.36069910000151, 94.41659129999971, 94.94461600000068]",3,6,# # # # # #,None
78,0.0,78,78.0,78.0,78.0,14.0,14.0,,,,2,False,0.0,None,right,False,2,1,0,enc,0,0,0,[],[],3,6,2 3 4 4 1 2,4
79,4.136025200001313,79,79.0,79.0,79.0,15.0,15.0,,,,2,True,0.5,acc,right,False,2,1,6,ret,1,10,0,"['2', '1', '4', '4', '3', '2']","[103.74457540000003, 104.04066590000002, 105.83265340000071, 106.11265229999844, 107.64859169999909, 107.88060060000134]",3,6,# # # # # #,None
80,0.0,80,80.0,80.0,80.0,16.0,16.0,,,,3,False,0.0,None,right,False,2,1,0,enc,0,0,1,[],[],3,6,2 1 1 2 4 1,6
81,2.1520103000002564,81,81.0,81.0,81.0,17.0,17.0,,,,3,True,0.5,acc,right,False,2,1,6,ret,1,10,1,"['2', '1', '1', '2', '4', '1']","[114.77655899999809, 115.13657329999842, 115.40041829999973, 116.22456949999832, 116.52856170000086, 116.92856929999834]",3,6,# # # # # #,None
82,0.0,82,82.0,82.0,82.0,18.0,18.0,,,,3,False,0.0,None,right,False,2,1,0,enc,0,0,0,[],[],3,6,3 2 1 1 3 2,6
83,6.559887499999603,83,83.0,83.0,83.0,19.0,19.0,,,,3,True,0.5,acc,right,True,2,1,4,ret,1,4,0,"['2', '4', '1', '1', '4', '3']","[126.08865050000168, 126.5926189999991, 127.60857820000092, 130.68055660000027, 131.7845344999987, 132.64853800000128]",3,6,# # # # # #,None
84,0.0,84,84.0,84.0,84.0,20.0,20.0,,,,2,False,0.0,None,right,False,2,1,0,enc,0,0,1,[],[],3,6,1 4 1 4 2 1,4
85,2.6718508999983897,85,85.0,85.0,85.0,21.0,21.0,,,,2,True,0.5,acc,right,True,2,1,4,ret,1,4,1,"['1', '4', '4', '1', '2', '1']","[141.80053150000094, 142.08848220000073, 142.40047409999897, 142.75249149999945, 144.27262110000083, 144.47238239999933]",3,6,# # # # # #,None
86,0.0,86,86.0,86.0,86.0,22.0,22.0,,,,2,False,0.0,None,right,False,2,1,0,enc,0,0,1,[],[],3,6,1 3 2 1 1 3,4
87,2.3118412000003445,87,87.0,87.0,87.0,23.0,23.0,,,,2,True,0.5,acc,right,False,2,1,6,ret,1,10,1,"['1', '3', '2', '1', '1', '3']","[153.1925568000006, 153.51336889999948, 154.46451380000144, 154.80843770000138, 155.1366240999996, 155.50439800000095]",3,6,# # # # # #,None
88,0.0,88,88.0,88.0,0.0,0.0,,,,,2,False,0.0,None,right,False,2,1,0,enc,0,0,1,[],[],4,6,4 4 1 3 2 2,4
89,1.9508142000013318,89,89.0,89.0,1.0,1.0,,,,,2,True,0.5,acc,right,False,2,1,6,ret,1,10,1,"['4', '4', '1', '3', '2', '2']","[6.52440260000003, 6.915213100000983, 7.307122199999867, 7.731313300002512, 8.171304900002724, 8.475216800001363]",4,6,# # # # # #,None
90,0.0,90,90.0,90.0,2.0,2.0,,,,,2,False,0.0,None,right,False,2,1,0,enc,0,0,0,[],[],4,6,3 2 1 3 4 3,4
91,4.528323400001682,91,91.0,91.0,3.0,3.0,,,,,2,True,0.5,acc,right,False,2,1,6,ret,1,10,0,"['3', '4', '3', '1', '2', '3']","[17.2592353, 17.723304800001642, 19.851335800001834, 20.235310600000957, 21.4992886, 21.787558700001682]",4,6,# # # # # #,None
92,0.0,92,92.0,92.0,4.0,4.0,,,,,3,False,0.0,None,right,False,2,1,0,enc,0,0,0,[],[],4,6,2 3 2 3 1 2,6
93,10.855991399999766,93,93.0,93.0,5.0,5.0,,,,,3,True,0.5,acc,right,True,2,1,5,ret,1,5,0,"['2', '1', '4', '2', '3', '2']","[30.347195800000918, 34.059221600000456, 34.93126900000061, 40.39515610000308, 40.899182799999835, 41.203187200000684]",4,6,# # # # # #,None
94,0.0,94,94.0,94.0,6.0,6.0,,,,,3,False,0.0,None,right,False,2,1,0,enc,0,0,1,[],[],4,6,4 4 4 2 2 1,6
95,1.7277909000004,95,95.0,95.0,7.0,7.0,,,,,3,True,0.5,acc,right,False,2,1,6,ret,1,10,1,"['4', '4', '4', '2', '2', '1']","[47.40333140000075, 47.73915750000015, 48.123184899999615, 48.45916399999987, 48.78724169999987, 49.13112230000115]",4,6,# # # # # #,None
96,0.0,96,96.0,96.0,8.0,8.0,,,,,2,False,0.0,None,right,False,2,1,0,enc,0,0,1,[],[],4,6,3 1 4 3 4 1,4
97,4.13606340000115,97,97.0,97.0,9.0,9.0,,,,,2,True,0.5,acc,right,False,2,1,6,ret,1,10,1,"['3', '1', '4', '3', '4', '1']","[58.3071658000008, 58.81927910000013, 59.26726340000096, 59.93916900000113, 62.17125810000289, 62.44322920000195]",4,6,# # # # # #,None
98,0.0,98,98.0,98.0,10.0,10.0,,,,,3,False,0.0,None,right,False,2,1,0,enc,0,0,1,[],[],4,6,3 1 4 2 4 3,6
99,6.36804580000171,99,99.0,99.0,11.0,11.0,,,,,3,True,0.5,acc,right,False,2,1,6,ret,1,10,1,"['3', '1', '4', '2', '4', '3']","[69.37117410000064, 69.7151343000005, 70.07515469999998, 74.65111460000116, 75.38713869999992, 75.73921990000235]",4,6,# # # # # #,None
100,0.0,100,100.0,100.0,12.0,12.0,,,,,2,False,0.0,None,right,False,2,1,0,enc,0,0,0,[],[],4,6,2 1 4 1 4 4,4
101,4.696543599999131,101,101.0,101.0,13.0,13.0,,,,,2,True,0.5,acc,right,False,2,1,6,ret,1,10,0,"['4', '4', '1', '4', '1', '2']","[83.97924160000184, 84.34721800000261, 86.347050700002, 86.76309089999995, 88.46759139999995, 88.67578520000097]",4,6,# # # # # #,None
102,0.0,102,102.0,102.0,14.0,14.0,,,,,3,False,0.0,None,right,False,2,1,0,enc,0,0,0,[],[],4,6,4 4 4 2 2 3,6
103,1.7529557999987446,103,103.0,103.0,15.0,15.0,,,,,3,True,0.5,acc,right,False,2,1,6,ret,1,10,0,"['3', '2', '2', '4', '4', '4']","[95.33910120000291, 95.71518510000169, 96.01118979999956, 96.34719650000261, 96.72320310000214, 97.09205700000166]",4,6,# # # # # #,None
104,0.0,104,104.0,104.0,16.0,16.0,,,,,2,False,0.0,None,right,False,2,1,0,enc,0,0,1,[],[],4,6,4 2 3 2 4 3,4
105,2.5438972000010835,105,105.0,105.0,17.0,17.0,,,,,2,True,0.5,acc,right,False,2,1,6,ret,1,10,1,"['4', '2', '3', '2', '4', '3']","[106.05924040000173, 106.81102610000016, 107.23509950000152, 107.81120840000222, 108.2671506000006, 108.60313760000281]",4,6,# # # # # #,None
106,0.0,106,106.0,106.0,18.0,18.0,,,,,2,False,0.0,None,right,False,2,1,0,enc,0,0,0,[],[],4,6,4 4 2 3 3 4,4
107,5.287978699998348,107,107.0,107.0,19.0,19.0,,,,,2,True,0.5,acc,right,False,2,1,6,ret,1,10,0,"['4', '3', '3', '2', '4', '4']","[117.41105000000243, 118.01103920000241, 121.33103010000195, 121.69897570000103, 122.3710882000014, 122.69902870000078]",4,6,# # # # # #,None
108,0.0,108,108.0,108.0,20.0,20.0,,,,,3,False,0.0,None,right,False,2,1,0,enc,0,0,1,[],[],4,6,3 3 3 1 1 2,6
109,7.118418599999131,109,109.0,109.0,21.0,21.0,,,,,3,True,0.5,acc,right,False,2,1,6,ret,1,10,1,"['3', '3', '3', '1', '1', '2']","[124.23661730000094, 129.48294490000262, 129.8670791000004, 130.89114680000057, 131.13908699999956, 131.35503590000008]",4,6,# # # # # #,None
110,0.0,110,110.0,110.0,22.0,22.0,,,,,3,False,0.0,None,right,False,2,1,0,enc,0,0,0,[],[],4,6,1 4 3 2 2 1,6
111,3.295187800002168,111,111.0,111.0,23.0,23.0,,,,,3,True,0.5,acc,right,False,2,1,6,ret,1,10,0,"['1', '2', '2', '3', '4', '1']","[138.21173350000026, 138.4829290000016, 138.7791023000027, 140.69102740000017, 141.24307990000307, 141.50692130000243]",4,6,# # # # # #,None
112,0.0,112,112.0,0.0,0.0,,,,,,3,False,0.0,None,right,False,2,1,0,enc,0,0,1,[],[],5,6,4 3 1 1 1 1,6
113,1.623470599999564,113,113.0,1.0,1.0,,,,,,3,True,0.5,acc,right,False,2,1,6,ret,1,10,1,"['4', '3', '1', '1', '1', '1']","[4.442741300001217, 4.810179799998878, 5.186031599998387, 5.506202299999131, 5.770296999999118, 6.066211900000781]",5,6,# # # # # #,None
114,0.0,114,114.0,2.0,2.0,,,,,,3,False,0.0,None,right,False,2,1,0,enc,0,0,1,[],[],5,6,2 4 2 3 2 4,6
115,5.144063699997787,115,115.0,3.0,3.0,,,,,,3,True,0.5,acc,right,True,2,1,3,ret,1,3,1,"['2', '3', '2', '2', '4', '4']","[14.85813490000146, 15.17005920000156, 15.706189500000619, 17.01816129999861, 19.25017129999833, 20.002198599999247]",5,6,# # # # # #,None
116,0.0,116,116.0,4.0,4.0,,,,,,2,False,0.0,None,right,False,2,1,0,enc,0,0,1,[],[],5,6,4 3 3 2 2 2,4
117,2.232022299998789,117,117.0,5.0,5.0,,,,,,2,True,0.5,acc,right,False,2,1,6,ret,1,10,1,"['4', '3', '3', '2', '2', '2']","[28.538093999999546, 28.97008999999889, 29.442183399998612, 30.130134899998666, 30.474332500001765, 30.770116299998335]",5,6,# # # # # #,None
118,0.0,118,118.0,6.0,6.0,,,,,,2,False,0.0,None,right,False,2,1,0,enc,0,0,1,[],[],5,6,2 3 1 3 2 3,4
119,2.432153899997502,119,119.0,7.0,7.0,,,,,,2,True,0.5,acc,right,False,2,1,6,ret,1,10,1,"['2', '3', '1', '3', '2', '3']","[39.28996130000087, 40.20208690000072, 40.810185599999386, 41.07412159999876, 41.44222459999946, 41.72211519999837]",5,6,# # # # # #,None
120,0.0,120,120.0,8.0,8.0,,,,,,2,False,0.0,None,right,False,2,1,0,enc,0,0,0,[],[],5,6,3 2 3 1 3 4,4
121,3.535851399999956,121,121.0,9.0,9.0,,,,,,2,True,0.5,acc,right,False,2,1,6,ret,1,10,0,"['4', '3', '1', '3', '2', '3']","[50.66611030000058, 51.17010020000089, 53.13808390000122, 53.56206440000096, 53.914105399999244, 54.20196170000054]",5,6,# # # # # #,None
122,0.0,122,122.0,10.0,10.0,,,,,,3,False,0.0,None,right,False,2,1,0,enc,0,0,0,[],[],5,6,1 3 1 4 1 1,6
123,3.1840222000028007,123,123.0,11.0,11.0,,,,,,3,True,0.5,acc,right,False,2,1,6,ret,1,10,0,"['1', '1', '4', '1', '3', '1']","[60.98599159999867, 61.210014799999044, 61.59405189999961, 63.40206730000136, 63.93002770000021, 64.17001380000147]",5,6,# # # # # #,None
124,0.0,124,124.0,12.0,12.0,,,,,,3,False,0.0,None,right,False,2,1,0,enc,0,0,0,[],[],5,6,3 3 4 4 1 1,6
125,5.456139300000359,125,125.0,13.0,13.0,,,,,,3,True,0.5,acc,right,True,2,1,5,ret,1,5,0,"['1', '1', '4', '1', '3', '3']","[74.1699852999991, 74.49016889999984, 74.82604980000178, 78.89012430000002, 79.35414200000014, 79.62612459999946]",5,6,# # # # # #,None
126,0.0,126,126.0,14.0,14.0,,,,,,2,False,0.0,None,right,False,2,1,0,enc,0,0,0,[],[],5,6,1 4 1 2 4 4,4
127,4.344046700000035,127,127.0,15.0,15.0,,,,,,2,True,0.5,acc,right,False,2,1,6,ret,1,10,0,"['4', '4', '2', '1', '4', '1']","[88.58604689999993, 88.92208440000104, 91.84198660000038, 92.17000349999944, 92.69008620000022, 92.93009359999996]",5,6,# # # # # #,None
128,0.0,128,128.0,16.0,16.0,,,,,,2,False,0.0,None,right,False,2,1,0,enc,0,0,1,[],[],5,6,1 2 2 1 4 2,4
129,1.9519496000029903,129,129.0,17.0,17.0,,,,,,2,True,0.5,acc,right,False,2,1,6,ret,1,10,1,"['1', '2', '2', '1', '4', '2']","[101.69012179999845, 102.12197960000049, 102.43405920000077, 102.90602969999964, 103.2660008999992, 103.64207140000144]",5,6,# # # # # #,None
130,0.0,130,130.0,18.0,18.0,,,,,,3,False,0.0,None,right,False,2,1,0,enc,0,0,1,[],[],5,6,2 2 1 3 1 3,6
131,2.0629958999998053,131,131.0,19.0,19.0,,,,,,3,True,0.5,acc,right,False,2,1,6,ret,1,10,1,"['2', '2', '1', '3', '1', '3']","[110.4029730000002, 110.64993229999891, 111.17002549999961, 111.99398060000021, 112.27400810000108, 112.46596890000001]",5,6,# # # # # #,None
132,0.0,132,132.0,20.0,20.0,,,,,,2,False,0.0,None,right,False,2,1,0,enc,0,0,0,[],[],5,6,3 4 2 3 1 4,4
133,8.751955399999133,133,133.0,21.0,21.0,,,,,,2,True,0.5,acc,right,False,2,1,6,ret,1,10,0,"['4', '1', '3', '2', '4', '3']","[121.18602610000016, 121.73806440000044, 125.06596680000075, 125.57003260000056, 129.68989099999817, 129.9379814999993]",5,6,# # # # # #,None
134,0.0,134,134.0,22.0,22.0,,,,,,3,False,0.0,None,right,False,2,1,0,enc,0,0,0,[],[],5,6,2 3 3 3 4 2,6
135,11.903975999997785,135,135.0,23.0,23.0,,,,,,3,True,0.5,acc,right,True,2,1,4,ret,1,4,0,"['2', '4', '4', '3', '2', '2']","[138.07393850000153, 139.28991440000027, 146.2659085999985, 149.2819277999988, 149.74581169999874, 149.97791449999932]",5,6,# # # # # #,None
136,0.0,136,0.0,0.0,,,,,,,2,False,0.0,None,right,False,2,1,0,enc,0,0,1,[],[],6,6,2 3 1 1 2 3,4
137,1.3999675999984902,137,1.0,1.0,,,,,,,2,True,0.5,acc,right,False,2,1,6,ret,1,10,1,"['2', '3', '1', '1', '2', '3']","[6.633742699999857, 6.970401799997489, 7.337777099997766, 7.585634699997172, 7.83377499999915, 8.033710299998347]",6,6,# # # # # #,None
138,0.0,138,2.0,2.0,,,,,,,3,False,0.0,None,right,False,2,1,0,enc,0,0,1,[],[],6,6,2 3 3 4 2 2,6
139,9.092071999999462,139,3.0,3.0,,,,,,,3,True,0.5,acc,right,True,2,1,5,ret,1,5,1,"['2', '2', '3', '4', '2', '2']","[8.061564299998281, 14.00968649999777, 14.769715599999472, 16.577705399999104, 16.977685499998188, 17.153636299997743]",6,6,# # # # # #,None
140,0.0,140,4.0,4.0,,,,,,,2,False,0.0,None,right,False,2,1,0,enc,0,0,0,[],[],6,6,3 1 2 4 4 4,4
141,3.4719783000000466,141,5.0,5.0,,,,,,,2,True,0.5,acc,right,False,2,1,6,ret,1,10,0,"['4', '4', '4', '2', '1', '3']","[25.617697300000145, 25.94577329999811, 27.233803899998748, 27.81769279999935, 28.92977450000035, 29.08967560000019]",6,6,# # # # # #,None
142,0.0,142,6.0,6.0,,,,,,,3,False,0.0,None,right,False,2,1,0,enc,0,0,1,[],[],6,6,3 3 1 3 2 2,6
143,2.079972199997429,143,7.0,7.0,,,,,,,3,True,0.5,acc,right,False,2,1,6,ret,1,10,1,"['3', '3', '1', '3', '2', '2']","[35.64966970000023, 36.17824859999746, 36.60160189999806, 37.20165359999737, 37.52967709999939, 37.72964189999766]",6,6,# # # # # #,None
144,0.0,144,8.0,8.0,,,,,,,2,False,0.0,None,right,False,2,1,0,enc,0,0,1,[],[],6,6,1 2 2 2 4 1,4
145,2.2000786999997217,145,9.0,9.0,,,,,,,2,True,0.5,acc,right,False,2,1,6,ret,1,10,1,"['1', '2', '2', '2', '4', '1']","[45.8416404999989, 46.08165519999966, 46.67368389999683, 46.94551270000011, 47.649714199997106, 48.041719199998624]",6,6,# # # # # #,None
146,0.0,146,10.0,10.0,,,,,,,3,False,0.0,None,right,False,2,1,0,enc,0,0,1,[],[],6,6,3 1 4 4 2 4,6
147,1.727985900000931,147,11.0,11.0,,,,,,,3,True,0.5,acc,right,False,2,1,6,ret,1,10,1,"['3', '1', '4', '4', '2', '4']","[54.46563369999785, 54.793731099998695, 55.1864585000003, 55.66563969999697, 55.96969379999791, 56.19361959999878]",6,6,# # # # # #,None
148,0.0,148,12.0,12.0,,,,,,,3,False,0.0,None,right,False,2,1,0,enc,0,0,0,[],[],6,6,3 4 1 3 4 2,6
149,2.775908600000548,149,13.0,13.0,,,,,,,3,True,0.5,acc,right,False,2,1,6,ret,1,10,0,"['2', '4', '3', '1', '4', '3']","[64.8975810999982, 65.24957249999716, 65.84957500000019, 67.21771159999844, 67.5135283999989, 67.67348969999875]",6,6,# # # # # #,None
150,0.0,150,14.0,14.0,,,,,,,3,False,0.0,None,right,False,2,1,0,enc,0,0,0,[],[],6,6,1 2 1 3 1 1,6
151,4.551830699998392,151,15.0,15.0,,,,,,,3,True,0.5,acc,right,False,2,1,6,ret,1,10,0,"['1', '1', '3', '1', '2', '1']","[74.81761879999976, 75.0176821999994, 75.40965649999998, 79.08958059999713, 79.2019849999997, 79.36944949999815]",6,6,# # # # # #,None
152,0.0,152,16.0,16.0,,,,,,,2,False,0.0,None,right,False,2,1,0,enc,0,0,1,[],[],6,6,2 1 4 3 3 2,4
153,1.9120724000022165,153,17.0,17.0,,,,,,,2,True,0.5,acc,right,False,2,1,6,ret,1,10,1,"['2', '1', '4', '3', '3', '2']","[88.44159799999761, 88.81780529999742, 89.3215633999971, 89.68154579999828, 90.02560299999823, 90.35367039999983]",6,6,# # # # # #,None
154,0.0,154,18.0,18.0,,,,,,,2,False,0.0,None,right,False,2,1,0,enc,0,0,0,[],[],6,6,1 4 4 1 2 3,4
155,5.648114199997507,155,19.0,19.0,,,,,,,2,True,0.5,acc,right,False,2,1,6,ret,1,10,0,"['3', '2', '1', '4', '4', '1']","[99.04150730000038, 99.55358820000038, 103.92957709999973, 104.21740649999992, 104.49755359999835, 104.68962149999788]",6,6,# # # # # #,None
156,0.0,156,20.0,20.0,,,,,,,2,False,0.0,None,right,False,2,1,0,enc,0,0,0,[],[],6,6,2 1 2 3 4 4,4
157,3.823961499998404,157,21.0,21.0,,,,,,,2,True,0.5,acc,right,False,2,1,6,ret,1,10,0,"['4', '4', '3', '2', '1', '2']","[113.00954089999868, 113.32148559999769, 115.54545519999738, 115.96949399999721, 116.68163209999693, 116.83350239999709]",6,6,# # # # # #,None
158,0.0,158,22.0,22.0,,,,,,,3,False,0.0,None,right,False,2,1,0,enc,0,0,0,[],[],6,6,3 1 3 4 2 3,6
159,5.0960104999976465,159,23.0,23.0,,,,,,,3,True,0.5,acc,right,True,2,1,3,ret,1,3,0,"['3', '2', '4', '1', '3', '1']","[123.92947869999989, 124.56962449999992, 124.90558129999772, 128.57782529999895, 128.76156929999706, 129.02548919999754]",6,6,# # # # # #,None
160,0.0,0,0.0,,,,,,,,2,False,0.0,None,right,False,2,1,0,enc,0,0,1,[],[],7,6,2 4 4 2 1 3,4
161,1.768031200001133,1,1.0,,,,,,,,2,True,0.5,acc,right,False,2,1,6,ret,1,10,1,"['2', '4', '4', '2', '1', '3']","[6.378055900000618, 6.7379919000013615, 6.969995300001756, 7.626040400002239, 7.986048099999607, 8.14608710000175]",7,6,# # # # # #,None
162,0.0,2,2.0,,,,,,,,3,False,0.0,None,right,False,2,1,0,enc,0,0,1,[],[],7,6,2 4 3 1 4 4,6
163,1.864089599999716,3,3.0,,,,,,,,3,True,0.5,acc,right,False,2,1,6,ret,1,10,1,"['2', '4', '3', '1', '4', '4']","[13.994001999999455, 14.258032000001549, 14.722102600000653, 15.03394169999956, 15.610800900001777, 15.85809159999917]",7,6,# # # # # #,None
164,0.0,4,4.0,,,,,,,,3,False,0.0,None,right,False,2,1,0,enc,0,0,1,[],[],7,6,3 3 4 4 4 1,6
165,1.6407280999992508,5,5.0,,,,,,,,3,True,0.5,acc,right,False,2,1,6,ret,1,10,1,"['3', '3', '4', '4', '4', '1']","[22.594011100001808, 22.89001619999908, 23.34612019999986, 23.73801530000128, 23.97807730000204, 24.23473920000106]",7,6,# # # # # #,None
166,0.0,6,6.0,,,,,,,,2,False,0.0,None,right,False,2,1,0,enc,0,0,1,[],[],7,6,4 1 2 3 3 2,4
167,2.016212700000324,7,7.0,,,,,,,,2,True,0.5,acc,right,False,2,1,6,ret,1,10,1,"['4', '1', '2', '3', '3', '2']","[33.041861900001095, 33.43414320000011, 34.24272120000023, 34.55435260000013, 34.81040529999882, 35.05807460000142]",7,6,# # # # # #,None
168,0.0,8,8.0,,,,,,,,3,False,0.0,None,right,False,2,1,0,enc,0,0,0,[],[],7,6,3 4 2 1 2 2,6
169,3.912007599999925,9,9.0,,,,,,,,3,True,0.5,acc,right,False,2,1,6,ret,1,10,0,"['2', '2', '1', '2', '4', '3']","[41.42599980000159, 41.64983500000017, 41.89008770000146, 43.77000229999976, 45.12207440000202, 45.338007400001516]",7,6,# # # # # #,None
170,0.0,10,10.0,,,,,,,,2,False,0.0,None,right,False,2,1,0,enc,0,0,0,[],[],7,6,4 4 3 4 3 3,4
171,3.079905900001904,11,11.0,,,,,,,,2,True,0.5,acc,right,False,2,1,6,ret,1,10,0,"['3', '3', '4', '3', '4', '4']","[53.578103399999236, 53.881820999999036, 55.36995329999991, 55.59396470000138, 56.45000230000005, 56.65800930000114]",7,6,# # # # # #,None
172,0.0,12,12.0,,,,,,,,2,False,0.0,None,right,False,2,1,0,enc,0,0,0,[],[],7,6,4 1 4 1 4 2,4
173,1.5920518999992057,13,13.0,,,,,,,,2,True,0.5,acc,right,False,2,1,6,ret,1,10,0,"['2', '4', '1', '4', '1', '4']","[65.06588720000218, 65.39388510000208, 66.02611400000023, 66.23396000000139, 66.51404270000057, 66.65793910000139]",7,6,# # # # # #,None
174,0.0,14,14.0,,,,,,,,3,False,0.0,None,right,False,2,1,0,enc,0,0,1,[],[],7,6,2 1 4 3 1 2,6
175,5.9041395999993265,15,15.0,,,,,,,,3,True,0.5,acc,right,True,2,1,4,ret,1,4,1,"['4', '1', '2', '3', '1', '2']","[75.25803400000223, 76.47393039999952, 77.07392280000204, 80.18601730000228, 80.81792499999938, 81.16217360000155]",7,6,# # # # # #,None
176,0.0,16,16.0,,,,,,,,2,False,0.0,None,right,False,2,1,0,enc,0,0,0,[],[],7,6,4 4 4 2 4 2,4
177,1.4160216999989643,17,17.0,,,,,,,,2,True,0.5,acc,right,False,2,1,6,ret,1,10,0,"['2', '4', '2', '4', '4', '4']","[90.05789139999979, 90.29798080000182, 90.65792789999978, 90.93787349999911, 91.2339862000008, 91.47391309999875]",7,6,# # # # # #,None
178,0.0,18,18.0,,,,,,,,3,False,0.0,None,right,False,2,1,0,enc,0,0,0,[],[],7,6,3 1 4 4 2 4,6
179,3.0639688000010215,19,19.0,,,,,,,,3,True,0.5,acc,right,False,2,1,6,ret,1,10,0,"['4', '2', '4', '4', '1', '3']","[100.22587550000026, 100.60988790000192, 100.94587120000142, 102.73795539999992, 103.05782470000122, 103.28984430000128]",7,6,# # # # # #,None
180,0.0,20,20.0,,,,,,,,3,False,0.0,None,right,False,2,1,0,enc,0,0,0,[],[],7,6,1 4 2 2 3 4,6
181,6.527993799998512,21,21.0,,,,,,,,3,True,0.5,acc,right,True,2,1,4,ret,1,4,0,"['4', '3', '2', '4', '2', '1']","[111.39382230000047, 111.68986969999969, 112.92175850000058, 116.73786250000194, 117.77786040000137, 117.92181609999898]",7,6,# # # # # #,None
182,0.0,22,22.0,,,,,,,,2,False,0.0,None,right,False,2,1,0,enc,0,0,1,[],[],7,6,1 1 2 1 1 3,4
183,2.264503999998851,23,23.0,,,,,,,,2,True,0.5,acc,right,False,2,1,6,ret,1,10,1,"['1', '1', '2', '1', '1', '3']","[126.33781330000056, 126.56176939999932, 127.32988420000038, 127.4898205999998, 128.4819051000013, 128.6023172999994]",7,6,# # # # # #,None
0,0.0,0,,,,,,,,,2,False,0.0,None,right,False,2,1,0,enc,0,0,1,[],[],8,6,4 2 3 2 2 2,4
1,1.6800586999997904,1,,,,,,,,,2,True,0.5,acc,right,False,2,1,6,ret,1,10,1,"['4', '2', '3', '2', '2', '2']","[6.676853000000847, 7.124810299999808, 7.43682489999992, 7.828965600001538, 8.117050000000745, 8.356911700000637]",8,6,# # # # # #,None
2,0.0,2,,,,,,,,,2,False,0.0,None,right,False,2,1,0,enc,0,0,1,[],[],8,6,1 1 1 3 1 4,4
3,1.1520535000017844,3,,,,,,,,,2,True,0.5,acc,right,False,2,1,6,ret,1,10,1,"['1', '1', '1', '3', '1', '4']","[16.73288820000016, 16.917468499999814, 17.292936400001054, 17.47693369999979, 17.684971500002575, 17.884941700001946]",8,6,# # # # # #,None
4,0.0,4,,,,,,,,,2,False,0.0,None,right,False,2,1,0,enc,0,0,0,[],[],8,6,2 1 2 1 3 4,4
5,1.8400318999993033,5,,,,,,,,,2,True,0.5,acc,right,False,2,1,6,ret,1,10,0,"['4', '3', '1', '2', '1', '2']","[28.252845200000593, 28.445806899999297, 29.476862300001812, 29.741118100002495, 29.92502230000173, 30.092877099999896]",8,6,# # # # # #,None
6,0.0,6,,,,,,,,,2,False,0.0,None,right,False,2,1,0,enc,0,0,1,[],[],8,6,1 3 1 4 2 3,4
7,1.8001527000014903,7,,,,,,,,,2,True,0.5,acc,right,False,2,1,6,ret,1,10,1,"['1', '3', '1', '4', '2', '3']","[38.62082300000111, 38.99695010000141, 39.332824700002675, 39.700883800000156, 40.164830199999415, 40.4209757000026]",8,6,# # # # # #,None
8,0.0,8,,,,,,,,,3,False,0.0,None,right,False,2,1,0,enc,0,0,1,[],[],8,6,1 4 3 3 2 2,6
9,1.6080388000009407,9,,,,,,,,,3,True,0.5,acc,right,False,2,1,6,ret,1,10,1,"['1', '4', '3', '3', '2', '2']","[46.85286070000075, 47.1648454999995, 47.53290530000231, 47.980796399999235, 48.260921100001724, 48.46089950000169]",8,6,# # # # # #,None
10,0.0,10,,,,,,,,,2,False,0.0,None,right,False,2,1,0,enc,0,0,0,[],[],8,6,4 3 3 4 4 1,4
11,4.479958899999474,11,,,,,,,,,2,True,0.5,acc,right,False,2,1,6,ret,1,10,0,"['1', '4', '4', '3', '3', '4']","[57.8128140000008, 58.07686530000137, 61.13278899999932, 61.80482210000264, 62.0368469999994, 62.29277290000027]",8,6,# # # # # #,None
12,0.0,12,,,,,,,,,2,False,0.0,None,right,False,2,1,0,enc,0,0,0,[],[],8,6,3 1 3 2 4 2,4
13,5.360076099997968,13,,,,,,,,,2,True,0.5,acc,right,False,2,1,6,ret,1,10,0,"['2', '4', '2', '3', '1', '3']","[72.54878480000116, 72.79739830000108, 76.02059880000161, 76.33282900000268, 77.79676860000109, 77.90886089999913]",8,6,# # # # # #,None
14,0.0,14,,,,,,,,,3,False,0.0,None,right,False,2,1,0,enc,0,0,1,[],[],8,6,1 3 2 3 3 3,6
15,1.2801184999989346,15,,,,,,,,,3,True,0.5,acc,right,False,2,1,6,ret,1,10,1,"['1', '3', '2', '3', '3', '3']","[84.64471810000032, 84.84473179999986, 85.1328293000006, 85.46873770000093, 85.70083449999947, 85.92483659999925]",8,6,# # # # # #,None
16,0.0,16,,,,,,,,,3,False,0.0,None,right,False,2,1,0,enc,0,0,1,[],[],8,6,4 2 4 4 2 4,6
17,1.8160915000007662,17,,,,,,,,,3,True,0.5,acc,right,False,2,1,6,ret,1,10,1,"['4', '2', '4', '4', '2', '4']","[92.94878339999923, 93.32477330000256, 93.60481129999971, 94.1487128000008, 94.50079829999959, 94.7648749]",8,6,# # # # # #,None
18,0.0,18,,,,,,,,,3,False,0.0,None,right,False,2,1,0,enc,0,0,0,[],[],8,6,1 2 2 3 1 1,6
19,2.543903899997531,19,,,,,,,,,3,True,0.5,acc,right,True,2,1,5,ret,1,5,0,"['1', '1', '3', '2', '2', '4']","[101.4127976000018, 101.61304960000052, 101.8688628000018, 103.5486622999997, 103.77260240000032, 103.95670149999933]",8,6,# # # # # #,None
20,0.0,20,,,,,,,,,3,False,0.0,None,right,False,2,1,0,enc,0,0,0,[],[],8,6,2 3 1 1 3 4,6
21,8.448069199999736,21,,,,,,,,,3,True,0.5,acc,right,True,2,1,2,ret,1,2,0,"['4', '2', '1', '2', '2', '1']","[111.43672430000152, 112.07683140000154, 113.2127900000014, 119.5246745000004, 119.73254910000105, 119.88479350000125]",8,6,# # # # # #,None
22,0.0,22,,,,,,,,,3,False,0.0,None,right,False,2,1,0,enc,0,0,0,[],[],8,6,4 3 2 2 1 3,6
23,4.855638199998793,23,,,,,,,,,3,True,0.5,acc,right,True,2,1,4,ret,1,4,0,"['3', '1', '2', '1', '2', '4']","[130.07728580000185, 130.9966013000012, 131.31704150000223, 134.10065530000065, 134.5979189000027, 134.93292400000064]",8,6,# # # # # #,None
