,Tn,MT,chunk,display_trial_feedback,feedback_dur,feedback_type,hand,is_error,item_dur,iti_dur,number_correct,phase,phase_type,points,recall_dir,response,response_time,run_number,seq_length,seq_str,trial_dur,P1,P2,P3,P4,P5,P6,IPI_0,IPI_1,IPI_2,IPI_3,IPI_4,IPI_5
0,0,0.0,3,False,0.0,None,right,False,2,1,0,enc,0,0,1,[],[],1,6,2 2 2 4 4 3,6,0.0,0.0,0.0,0.0,0.0,0.0,0,0.0,0.0,0.0,0.0,0.0
1,1,2.072000600001047,3,True,0.5,acc,right,False,2,1,6,ret,1,10,1,"['2', '2', '2', '4', '4', '3']","[7.038577399998758, 7.7745471999987785, 8.142596599998797, 8.54256009999881, 8.806473399999959, 9.110577999999805]",1,6,# # # # # #,None,7.038577399998758,7.7745471999987785,8.142596599998797,8.54256009999881,8.806473399999959,9.110577999999805,0.5385773999987578,0.7359698000000208,0.36804940000001807,0.3999635000000126,0.26391330000114976,0.30410459999984596
2,2,0.0,3,False,0.0,None,right,False,2,1,0,enc,0,0,1,[],[],1,6,1 3 1 3 1 2,6,0.0,0.0,0.0,0.0,0.0,0.0,0,0.0,0.0,0.0,0.0,0.0
3,3,1.2238667000001442,3,True,0.5,acc,right,False,2,1,6,ret,1,10,1,"['1', '3', '1', '3', '1', '2']","[16.23211469999842, 16.47856580000007, 16.726458600000115, 16.998551699998643, 17.270749799999976, 17.455981399998564]",1,6,# # # # # #,None,16.23211469999842,16.47856580000007,16.726458600000115,16.998551699998643,17.270749799999976,17.455981399998564,0.6215366999986145,0.24645110000165005,0.2478928000000451,0.2720930999985285,0.27219810000133293,0.18523159999858763
4,4,0.0,3,False,0.0,None,right,False,2,1,0,enc,0,0,0,[],[],1,6,4 1 4 3 4 3,6,0.0,0.0,0.0,0.0,0.0,0.0,0,0.0,0.0,0.0,0.0,0.0
5,5,1.8869537000009584,3,True,0.5,acc,right,False,2,1,6,ret,1,10,0,"['3', '4', '3', '4', '1', '4']","[24.127587699998912, 24.44657229999939, 24.76653299999998, 25.543504100000064, 25.774457399998937, 26.01454139999987]",1,6,# # # # # #,None,24.127587699998912,24.44657229999939,24.76653299999998,25.543504100000064,25.774457399998937,26.01454139999987,0.1716063000003487,0.31898460000047635,0.3199607000005926,0.7769711000000825,0.23095329999887326,0.24008400000093388
6,6,0.0,2,False,0.0,None,right,False,2,1,0,enc,0,0,1,[],[],1,6,4 3 4 1 4 4,4,0.0,0.0,0.0,0.0,0.0,0.0,0,0.0,0.0,0.0,0.0,0.0
7,7,0.8969831999984308,2,True,0.5,acc,right,True,2,1,1,ret,1,1,1,"['1', '1', '1', '1', '1', '1']","[49.76653299999998, 49.93476329999976, 50.110685399999056, 50.28658059999907, 50.47045889999936, 50.66351619999841]",1,6,# # # # # #,None,49.76653299999998,49.93476329999976,50.110685399999056,50.28658059999907,50.47045889999936,50.66351619999841,17.25199160000011,0.16823029999977734,0.17592209999929764,0.17589520000001357,0.1838783000002877,0.19305729999905452
8,8,0.0,2,False,0.0,None,right,False,2,1,0,enc,0,0,0,[],[],1,6,4 1 3 3 1 4,4,0.0,0.0,0.0,0.0,0.0,0.0,0,0.0,0.0,0.0,0.0,0.0
9,9,2.4686118999998143,2,True,0.5,acc,right,True,2,1,0,ret,1,0,0,"['2', '3', '2', '2', '2', '2']","[58.23405619999903, 59.83847799999967, 60.022404800000004, 60.2466543999999, 60.462462499999674, 60.702668099998846]",1,6,# # # # # #,None,58.23405619999903,59.83847799999967,60.022404800000004,60.2466543999999,60.462462499999674,60.702668099998846,1.0705400000006193,1.6044218000006367,0.1839268000003358,0.2242495999998937,0.21580809999977646,0.24020559999917168
10,10,0.0,2,False,0.0,None,right,False,2,1,0,enc,0,0,0,[],[],1,6,1 3 4 2 2 2,4,0.0,0.0,0.0,0.0,0.0,0.0,0,0.0,0.0,0.0,0.0,0.0
11,11,2.0880420999983467,2,True,0.5,acc,right,True,2,1,4,ret,1,4,0,"['2', '2', '3', '4', '2', '1']","[69.99846160000016, 70.35042549999889, 70.80658129999938, 71.0543719999987, 71.9183811999992, 72.0865036999985]",1,6,# # # # # #,None,69.99846160000016,70.35042549999889,70.80658129999938,71.0543719999987,71.9183811999992,72.0865036999985,2.7957935000013094,0.35196389999873645,0.45615580000048794,0.2477906999993138,0.8640092000005097,0.16812249999929918
12,12,0.0,3,False,0.0,None,right,False,2,1,0,enc,0,0,0,[],[],1,6,4 1 1 1 4 3,6,0.0,0.0,0.0,0.0,0.0,0.0,0,0.0,0.0,0.0,0.0,0.0
13,13,1.5998959999997169,3,True,0.5,acc,right,True,2,1,0,ret,1,0,0,"['2', '2', '2', '2', '2', '2']","[91.96633069999916, 92.1501687, 92.3263165999997, 92.51825189999909, 92.70223780000015, 93.56622669999888]",1,6,# # # # # #,None,91.96633069999916,92.1501687,92.3263165999997,92.51825189999909,92.70223780000015,93.56622669999888,13.37982700000066,0.18383800000083284,0.17614789999970526,0.1919352999993862,0.18398590000106196,0.8639888999987306
14,14,0.0,2,False,0.0,None,right,False,2,1,0,enc,0,0,1,[],[],1,6,1 2 3 4 3 1,4,0.0,0.0,0.0,0.0,0.0,0.0,0,0.0,0.0,0.0,0.0,0.0
15,15,1.4160500999987562,2,True,0.5,acc,right,False,2,1,6,ret,1,10,1,"['1', '2', '3', '4', '3', '1']","[102.58227299999999, 102.86252119999881, 103.1822188999995, 103.46214529999997, 103.7102419999992, 103.99832309999874]",1,6,# # # # # #,None,102.58227299999999,102.86252119999881,103.1822188999995,103.46214529999997,103.7102419999992,103.99832309999874,2.5160463000011077,0.2802481999988231,0.3196977000006882,0.27992640000047686,0.24809669999922335,0.2880810999995447
16,0,0.0,3,False,0.0,None,right,False,2,1,0,enc,0,0,1,[],[],1,6,4 2 2 1 1 2,6,0.0,0.0,0.0,0.0,0.0,0.0,0,0.0,0.0,0.0,0.0,0.0
17,1,1.2399906999999075,3,True,0.5,acc,right,True,2,1,5,ret,1,5,1,"['4', '2', '2', '1', '2', '2']","[5.228579100001298, 5.5005429000011645, 5.716529799999989, 6.0205540000006295, 6.228612300001259, 6.468569800001205]",1,6,# # # # # #,None,5.228579100001298,5.5005429000011645,5.716529799999989,6.0205540000006295,6.228612300001259,6.468569800001205,NaN,0.27196379999986675,0.2159868999988248,0.3040242000006401,0.20805830000062997,0.23995749999994587
18,2,0.0,3,False,0.0,None,right,False,2,1,0,enc,0,0,1,[],[],1,6,3 3 2 2 3 3,6,0.0,0.0,0.0,0.0,0.0,0.0,0,0.0,0.0,0.0,0.0,0.0
19,3,1.6560342000011588,3,True,0.5,acc,right,True,2,1,5,ret,1,5,1,"['3', '3', '2', '2', '2', '3']","[12.852528299999904, 13.084559400000217, 13.37255770000047, 14.092554000000746, 14.292555600000924, 14.508562500001062]",1,6,# # # # # #,None,12.852528299999904,13.084559400000217,13.37255770000047,14.092554000000746,14.292555600000924,14.508562500001062,-0.11604150000130176,0.23203110000031302,0.28799830000025395,0.7199963000002754,0.20000160000017786,0.21600690000013856
20,4,0.0,2,False,0.0,None,right,False,2,1,0,enc,0,0,0,[],[],1,6,1 4 4 2 2 1,4,0.0,0.0,0.0,0.0,0.0,0.0,0,0.0,0.0,0.0,0.0,0.0
21,5,3.607988300000216,2,True,0.5,acc,right,True,2,1,2,ret,1,2,0,"['1', '2', '4', '2', '1', '2']","[24.036550900000293, 24.42052760000115, 25.62851150000097, 25.97257830000126, 27.46853960000044, 27.64453920000051]",1,6,# # # # # #,None,24.036550900000293,24.42052760000115,25.62851150000097,25.97257830000126,27.46853960000044,27.64453920000051,3.0279883999992308,0.3839767000008578,1.2079838999998174,0.34406680000029155,1.4959612999991805,0.1759996000000683
22,6,0.0,3,False,0.0,None,right,False,2,1,0,enc,0,0,0,[],[],1,6,2 3 3 2 4 1,6,0.0,0.0,0.0,0.0,0.0,0.0,0,0.0,0.0,0.0,0.0,0.0
23,7,4.31196749999981,3,True,0.5,acc,right,True,2,1,4,ret,1,4,0,"['1', '4', '2', '3', '2', '3']","[35.02048930000092, 35.71648219999952, 36.01250660000005, 37.0765334000007, 38.57255819999955, 39.33245680000073]",1,6,# # # # # #,None,35.02048930000092,35.71648219999952,36.01250660000005,37.0765334000007,38.57255819999955,39.33245680000073,0.8759501000004093,0.6959928999986005,0.2960244000005332,1.0640268000006472,1.4960247999988496,0.7598986000011791
24,8,0.0,2,False,0.0,None,right,False,2,1,0,enc,0,0,0,[],[],1,6,4 3 2 1 3 4,4,0.0,0.0,0.0,0.0,0.0,0.0,0,0.0,0.0,0.0,0.0,0.0
25,9,1.5919711000005918,2,True,0.5,acc,right,True,2,1,0,ret,1,0,0,"['1', '2', '4', '3', '1', '2']","[48.73249650000071, 49.07660130000113, 49.4364084000008, 49.748477600000115, 50.12453210000058, 50.3244676000013]",1,6,# # # # # #,None,48.73249650000071,49.07660130000113,49.4364084000008,49.748477600000115,50.12453210000058,50.3244676000013,2.9000396999999793,0.344104800000423,0.35980709999967075,0.31206919999931415,0.37605450000046403,0.1999355000007199
26,10,0.0,2,False,0.0,None,right,False,2,1,0,enc,0,0,1,[],[],1,6,4 3 3 1 1 2,4,0.0,0.0,0.0,0.0,0.0,0.0,0,0.0,0.0,0.0,0.0,0.0
27,11,1.5440967000013188,2,True,0.5,acc,right,False,2,1,6,ret,1,10,1,"['4', '3', '3', '1', '1', '2']","[59.484458599999925, 59.82038830000056, 60.14047920000121, 60.452537200000734, 60.756520300001284, 61.028555300001244]",1,6,# # # # # #,None,59.484458599999925,59.82038830000056,60.14047920000121,60.452537200000734,60.756520300001284,61.028555300001244,2.6599909999986266,0.3359297000006336,0.32009090000065044,0.3120579999995243,0.3039831000005506,0.27203499999995984
28,12,0.0,3,False,0.0,None,right,False,2,1,0,enc,0,0,0,[],[],1,6,2 3 4 2 2 1,6,0.0,0.0,0.0,0.0,0.0,0.0,0,0.0,0.0,0.0,0.0,0.0
29,13,2.6721360000010463,3,True,0.5,acc,right,True,2,1,4,ret,1,4,0,"['1', '2', '2', '1', '3', '4']","[67.38040050000018, 67.64445530000012, 67.8284089000008, 69.66870970000127, 69.83649130000049, 70.05253650000122]",1,6,# # # # # #,None,67.38040050000018,67.64445530000012,67.8284089000008,69.66870970000127,69.83649130000049,70.05253650000122,-0.14815480000106618,0.26405479999993986,0.1839536000006774,1.8403008000004775,0.16778159999921627,0.21604520000073535
30,14,0.0,2,False,0.0,None,right,False,2,1,0,enc,0,0,1,[],[],1,6,4 2 3 4 2 1,4,0.0,0.0,0.0,0.0,0.0,0.0,0,0.0,0.0,0.0,0.0,0.0
31,15,1.4959686999991393,2,True,0.5,acc,right,True,2,1,5,ret,1,5,1,"['4', '2', '3', '1', '2', '1']","[79.27643780000108, 79.56434050000098, 79.78851570000006, 80.05242250000083, 80.5564415000008, 80.77240650000022]",1,6,# # # # # #,None,79.27643780000108,79.56434050000098,79.78851570000006,80.05242250000083,80.5564415000008,80.77240650000022,2.723901299999852,0.28790269999990414,0.2241751999990811,0.26390680000076827,0.5040189999999711,0.21596499999941443
32,16,0.0,2,False,0.0,None,right,False,2,1,0,enc,0,0,1,[],[],1,6,1 4 1 3 2 4,4,0.0,0.0,0.0,0.0,0.0,0.0,0,0.0,0.0,0.0,0.0,0.0
33,17,1.8479651999987248,2,True,0.5,acc,right,True,2,1,4,ret,1,4,1,"['1', '4', '1', '3', '4', '2']","[89.50053000000116, 89.87640330000067, 90.15652390000105, 90.39632730000085, 91.14841390000038, 91.34849519999989]",1,6,# # # # # #,None,89.50053000000116,89.87640330000067,90.15652390000105,90.39632730000085,91.14841390000038,91.34849519999989,2.2281235000009474,0.3758732999995118,0.2801206000003731,0.2398033999998006,0.7520865999995294,0.20008129999951052
34,18,0.0,3,False,0.0,None,right,False,2,1,0,enc,0,0,0,[],[],1,6,2 3 3 3 3 4,6,0.0,0.0,0.0,0.0,0.0,0.0,0,0.0,0.0,0.0,0.0,0.0
35,19,1.9359507000008307,3,True,0.5,acc,right,False,2,1,6,ret,1,10,0,"['4', '3', '3', '3', '3', '2']","[98.78038930000002, 99.06048329999976, 99.25257559999955, 100.3642916000008, 100.54046680000101, 100.71634000000086]",1,6,# # # # # #,None,98.78038930000002,99.06048329999976,99.25257559999955,100.3642916000008,100.54046680000101,100.71634000000086,0.931894100000136,0.2800939999997354,0.1920922999997856,1.1117160000012518,0.17617520000021614,0.17587319999984175
36,20,0.0,3,False,0.0,None,right,False,2,1,0,enc,0,0,1,[],[],1,6,1 1 3 2 2 4,6,0.0,0.0,0.0,0.0,0.0,0.0,0,0.0,0.0,0.0,0.0,0.0
37,21,0.8640854000004765,3,True,0.5,acc,right,False,2,1,6,ret,1,10,1,"['1', '1', '3', '2', '2', '4']","[107.20435809999981, 107.35627060000115, 107.54925000000003, 107.74074170000131, 107.89244640000106, 108.06844350000028]",1,6,# # # # # #,None,107.20435809999981,107.35627060000115,107.54925000000003,107.74074170000131,107.89244640000106,108.06844350000028,-0.011981900001046597,0.1519125000013446,0.19297939999887603,0.19149170000127924,0.15170469999975467,0.17599709999922197
38,22,0.0,2,False,0.0,None,right,False,2,1,0,enc,0,0,0,[],[],1,6,4 1 1 1 4 4,4,0.0,0.0,0.0,0.0,0.0,0.0,0,0.0,0.0,0.0,0.0,0.0
39,23,1.911957899999834,2,True,0.5,acc,right,False,2,1,6,ret,1,10,0,"['4', '4', '1', '1', '1', '4']","[116.78038070000002, 116.95633530000123, 117.4364727000011, 117.58842730000106, 118.4763092000012, 118.69233859999986]",1,6,# # # # # #,None,116.78038070000002,116.95633530000123,117.4364727000011,117.58842730000106,118.4763092000012,118.69233859999986,2.2119371999997384,0.1759546000012051,0.4801373999998759,0.15195459999995364,0.8878819000001386,0.21602939999866067
40,0,0.0,3,False,0.0,None,right,False,2,1,0,enc,0,0,1,[],[],2,6,3 2 2 3 2 3,6,0.0,0.0,0.0,0.0,0.0,0.0,0,0.0,0.0,0.0,0.0,0.0
41,1,1.3599598000000697,3,True,0.5,acc,right,False,2,1,6,ret,1,10,1,"['3', '2', '2', '3', '2', '3']","[5.020416999999725, 5.212349899999026, 5.39638659999946, 6.060408800000005, 6.228525799999261, 6.3803767999997945]",2,6,# # # # # #,None,5.020416999999725,5.212349899999026,5.39638659999946,6.060408800000005,6.228525799999261,6.3803767999997945,NaN,0.1919328999993013,0.18403670000043348,0.6640222000005451,0.16811699999925622,0.15185100000053353
42,2,0.0,2,False,0.0,None,right,False,2,1,0,enc,0,0,1,[],[],2,6,2 4 4 4 4 1,4,0.0,0.0,0.0,0.0,0.0,0.0,0,0.0,0.0,0.0,0.0,0.0
43,3,2.9678655999996413,2,True,0.5,acc,right,True,2,1,4,ret,1,4,1,"['2', '4', '4', '4', '1', '4']","[15.236461200000122, 15.524438499998723, 15.788534600000276, 15.95637220000026, 18.052401499999178, 18.204326799999762]",2,6,# # # # # #,None,15.236461200000122,15.524438499998723,15.788534600000276,15.95637220000026,18.052401499999178,18.204326799999762,2.356084400000327,0.28797729999860167,0.26409610000155226,0.16783759999998438,2.096029299998918,0.15192530000058468
44,4,0.0,3,False,0.0,None,right,False,2,1,0,enc,0,0,1,[],[],2,6,1 4 1 4 4 3,6,0.0,0.0,0.0,0.0,0.0,0.0,0,0.0,0.0,0.0,0.0,0.0
45,5,1.4878368000008777,3,True,0.5,acc,right,False,2,1,6,ret,1,10,1,"['1', '4', '1', '4', '4', '3']","[24.652577199998632, 25.04446309999912, 25.300458499999877, 25.79646689999936, 25.948519899999155, 26.14041399999951]",2,6,# # # # # #,None,24.652577199998632,25.04446309999912,25.300458499999877,25.79646689999936,25.948519899999155,26.14041399999951,-0.0517496000011306,0.3918859000004886,0.2559954000007565,0.4960083999994822,0.15205299999979616,0.19189410000035423
46,6,0.0,3,False,0.0,None,right,False,2,1,0,enc,0,0,0,[],[],2,6,1 3 1 3 1 3,6,0.0,0.0,0.0,0.0,0.0,0.0,0,0.0,0.0,0.0,0.0,0.0
47,7,2.9359965000003285,3,True,0.5,acc,right,False,2,1,6,ret,1,10,0,"['3', '1', '3', '1', '3', '1']","[32.564474799999516, 32.74843529999998, 32.96431080000002, 35.012307499999224, 35.31639449999966, 35.500471299999845]",2,6,# # # # # #,None,32.564474799999516,32.74843529999998,32.96431080000002,35.012307499999224,35.31639449999966,35.500471299999845,-0.07593919999999343,0.1839605000004667,0.2158755000000383,2.047996699999203,0.3040870000004361,0.18407680000018445
48,8,0.0,2,False,0.0,None,right,False,2,1,0,enc,0,0,0,[],[],2,6,2 1 4 4 4 2,4,0.0,0.0,0.0,0.0,0.0,0.0,0,0.0,0.0,0.0,0.0,0.0
49,9,1.848045299999285,2,True,0.5,acc,right,True,2,1,4,ret,1,4,0,"['4', '2', '4', '4', '1', '2']","[44.54834599999958, 44.81222059999891, 45.76446939999914, 45.97236519999933, 46.308403400000316, 46.39639129999887]",2,6,# # # # # #,None,44.54834599999958,44.81222059999891,45.76446939999914,45.97236519999933,46.308403400000316,46.39639129999887,2.5478746999997384,0.26387459999932616,0.952248800000234,0.2078958000001876,0.33603820000098494,0.08798789999855217
50,10,0.0,3,False,0.0,None,right,False,2,1,0,enc,0,0,0,[],[],2,6,3 3 4 1 2 3,6,0.0,0.0,0.0,0.0,0.0,0.0,0,0.0,0.0,0.0,0.0,0.0
51,11,2.5758158000007825,3,True,0.5,acc,right,True,2,1,4,ret,1,4,0,"['3', '2', '1', '3', '2', '3']","[53.76436949999879, 53.95653039999888, 54.1803134999991, 55.86837939999896, 56.16429020000032, 56.340185299999575]",2,6,# # # # # #,None,53.76436949999879,53.95653039999888,54.1803134999991,55.86837939999896,56.16429020000032,56.340185299999575,0.867978199999925,0.1921609000000899,0.22378310000021884,1.688065899999856,0.2959108000013657,0.17589509999925212
52,12,0.0,2,False,0.0,None,right,False,2,1,0,enc,0,0,0,[],[],2,6,4 2 2 2 3 1,4,0.0,0.0,0.0,0.0,0.0,0.0,0,0.0,0.0,0.0,0.0,0.0
53,13,1.8719799999998936,2,True,0.5,acc,right,True,2,1,1,ret,1,1,0,"['2', '4', '3', '2', '1', '1']","[66.4203121999999, 66.74832049999895, 67.3803355, 67.62022179999985, 68.12428419999924, 68.29229219999979]",2,6,# # # # # #,None,66.4203121999999,66.74832049999895,67.3803355,67.62022179999985,68.12428419999924,68.29229219999979,3.580126900000323,0.32800829999905545,0.6320150000010472,0.23988629999985278,0.5040623999993841,0.1680080000005546
54,14,0.0,3,False,0.0,None,right,False,2,1,0,enc,0,0,1,[],[],2,6,3 2 2 1 1 4,6,0.0,0.0,0.0,0.0,0.0,0.0,0,0.0,0.0,0.0,0.0,0.0
55,15,0.9360926000008476,3,True,0.5,acc,right,False,2,1,6,ret,1,10,1,"['3', '2', '2', '1', '1', '4']","[74.89219859999866, 75.07633910000004, 75.25231910000002, 75.44436499999938, 75.63635109999996, 75.82829119999951]",2,6,# # # # # #,None,74.89219859999866,75.07633910000004,75.25231910000002,75.44436499999938,75.63635109999996,75.82829119999951,0.09990639999887208,0.1841405000013765,0.17597999999998137,0.19204589999935706,0.1919861000005767,0.19194009999955597
56,16,0.0,2,False,0.0,None,right,False,2,1,0,enc,0,0,0,[],[],2,6,4 3 2 1 2 2,4,0.0,0.0,0.0,0.0,0.0,0.0,0,0.0,0.0,0.0,0.0,0.0
57,17,2.944175599999653,2,True,0.5,acc,right,True,2,1,3,ret,1,3,0,"['3', '4', '1', '2', '4', '4']","[86.25215089999983, 86.55634909999935, 87.86828369999967, 88.10826209999868, 89.02027009999983, 89.19632649999949]",2,6,# # # # # #,None,86.25215089999983,86.55634909999935,87.86828369999967,88.10826209999868,89.02027009999983,89.19632649999949,3.923859700000321,0.3041981999995187,1.3119346000003134,0.2399783999990177,0.9120080000011512,0.17605639999965206
58,18,0.0,2,False,0.0,None,right,False,2,1,0,enc,0,0,1,[],[],2,6,3 1 4 4 2 3,4,0.0,0.0,0.0,0.0,0.0,0.0,0,0.0,0.0,0.0,0.0,0.0
59,19,1.5519299999996292,2,True,0.5,acc,right,False,2,1,6,ret,1,10,1,"['3', '1', '4', '4', '2', '3']","[98.71630829999958, 99.02021090000017, 99.80435269999907, 99.97253959999944, 100.19647619999887, 100.26823829999921]",2,6,# # # # # #,None,98.71630829999958,99.02021090000017,99.80435269999907,99.97253959999944,100.19647619999887,100.26823829999921,3.019981800000096,0.30390260000058333,0.7841417999989062,0.1681869000003644,0.22393659999943338,0.07176210000034189
60,20,0.0,3,False,0.0,None,right,False,2,1,0,enc,0,0,0,[],[],2,6,1 1 4 4 3 2,6,0.0,0.0,0.0,0.0,0.0,0.0,0,0.0,0.0,0.0,0.0,0.0
61,21,1.9678849000010807,3,True,0.5,acc,right,True,2,1,0,ret,1,0,0,"['4', '1', '1', '2', '3', '2']","[109.14823479999905, 109.59626609999941, 110.29228229999899, 110.78018469999915, 110.94822810000005, 111.11611970000013]",2,6,# # # # # #,None,109.14823479999905,109.59626609999941,110.29228229999899,110.78018469999915,110.94822810000005,111.11611970000013,2.3799964999998338,0.4480313000003662,0.6960161999995762,0.4879024000001664,0.16804340000089724,0.1678916000000754
62,22,0.0,2,False,0.0,None,right,False,2,1,0,enc,0,0,1,[],[],2,6,4 2 1 2 4 1,4,0.0,0.0,0.0,0.0,0.0,0.0,0,0.0,0.0,0.0,0.0,0.0
63,23,1.6959999000009702,2,True,0.5,acc,right,True,2,1,4,ret,1,4,1,"['4', '1', '2', '2', '4', '1']","[120.83617409999897, 121.1962311999996, 121.6602014, 121.90006149999863, 122.30827529999988, 122.53217399999994]",2,6,# # # # # #,None,120.83617409999897,121.1962311999996,121.6602014,121.90006149999863,122.30827529999988,122.53217399999994,3.220054399998844,0.3600571000006312,0.46397020000040357,0.2398600999986229,0.4082138000012492,0.2238987000000634
64,0,0.0,2,False,0.0,None,right,False,2,1,0,enc,0,0,1,[],[],3,6,1 3 3 1 2 3,4,0.0,0.0,0.0,0.0,0.0,0.0,0,0.0,0.0,0.0,0.0,0.0
65,1,1.1844514000003985,2,True,0.5,acc,right,False,2,1,6,ret,1,10,1,"['1', '3', '3', '1', '2', '3']","[6.764803799998845, 7.092745799998738, 7.324709999998959, 7.572786299999279, 7.804755799999839, 7.949255199999243]",3,6,# # # # # #,None,6.764803799998845,7.092745799998738,7.324709999998959,7.572786299999279,7.804755799999839,7.949255199999243,NaN,0.3279419999998936,0.23196420000022044,0.24807630000032077,0.2319695000005595,0.14449939999940398
66,2,0.0,3,False,0.0,None,right,False,2,1,0,enc,0,0,0,[],[],3,6,2 3 1 2 2 1,6,0.0,0.0,0.0,0.0,0.0,0.0,0,0.0,0.0,0.0,0.0,0.0
67,3,2.536065199999939,3,True,0.5,acc,right,True,2,1,4,ret,1,4,0,"['1', '2', '2', '1', '2', '3']","[14.868674299999839, 15.09282389999862, 15.268713499999649, 17.084712099998796, 17.228724099999454, 17.404739499999778]",3,6,# # # # # #,None,14.868674299999839,15.09282389999862,15.268713499999649,17.084712099998796,17.228724099999454,17.404739499999778,0.4194191000005958,0.22414959999878192,0.17588960000102816,1.8159985999991477,0.14401200000065728,0.176015400000324
68,4,0.0,3,False,0.0,None,right,False,2,1,0,enc,0,0,1,[],[],3,6,4 1 3 2 2 1,6,0.0,0.0,0.0,0.0,0.0,0.0,0,0.0,0.0,0.0,0.0,0.0
69,5,1.216046199999255,3,True,0.5,acc,right,False,2,1,6,ret,1,10,1,"['4', '1', '3', '2', '2', '1']","[24.18069629999991, 24.49265479999849, 24.73258589999932, 24.97269619999861, 25.140821299999516, 25.396742499999164]",3,6,# # # # # #,None,24.18069629999991,24.49265479999849,24.73258589999932,24.97269619999861,25.140821299999516,25.396742499999164,0.2759568000001309,0.31195849999858183,0.23993110000083107,0.24011029999928724,0.16812510000090697,0.2559211999996478
70,6,0.0,2,False,0.0,None,right,False,2,1,0,enc,0,0,0,[],[],3,6,3 4 4 3 4 1,4,0.0,0.0,0.0,0.0,0.0,0.0,0,0.0,0.0,0.0,0.0,0.0
71,7,2.4160639000001543,2,True,0.5,acc,right,False,2,1,6,ret,1,10,0,"['1', '4', '3', '4', '4', '3']","[34.356710199999725, 34.70877589999873, 35.980801199999405, 36.26074919999883, 36.516722799999116, 36.77277409999988]",3,6,# # # # # #,None,34.356710199999725,34.70877589999873,35.980801199999405,36.26074919999883,36.516722799999116,36.77277409999988,2.4599677000005613,0.3520656999990024,1.2720253000006778,0.2799479999994219,0.25597360000028857,0.25605130000076315
72,8,0.0,3,False,0.0,None,right,False,2,1,0,enc,0,0,1,[],[],3,6,1 2 2 4 4 3,6,0.0,0.0,0.0,0.0,0.0,0.0,0,0.0,0.0,0.0,0.0,0.0
73,9,2.336026099999799,3,True,0.5,acc,right,True,2,1,5,ret,1,5,1,"['1', '2', '2', '4', '3', '3']","[43.22864219999974, 43.48473079999894, 43.67666119999922, 45.0766222000002, 45.404607899999974, 45.56466829999954]",3,6,# # # # # #,None,43.22864219999974,43.48473079999894,43.67666119999922,45.0766222000002,45.404607899999974,45.56466829999954,-0.04413190000013856,0.2560885999992024,0.19193040000027395,1.3999610000009852,0.3279856999997719,0.16006039999956556
74,10,0.0,2,False,0.0,None,right,False,2,1,0,enc,0,0,0,[],[],3,6,4 4 3 2 3 3,4,0.0,0.0,0.0,0.0,0.0,0.0,0,0.0,0.0,0.0,0.0,0.0
75,11,2.8243597000000578,2,True,0.5,acc,right,False,2,1,6,ret,1,10,0,"['3', '3', '2', '3', '4', '4']","[54.348624799999016, 54.5566431999996, 56.35670039999968, 56.58876009999949, 57.02069619999929, 57.172984499999075]",3,6,# # # # # #,None,54.348624799999016,54.5566431999996,56.35670039999968,56.58876009999949,57.02069619999929,57.172984499999075,2.2839564999994764,0.20801840000058291,1.800057200000083,0.2320596999998088,0.43193609999980254,0.15228829999978188
76,12,0.0,3,False,0.0,None,right,False,2,1,0,enc,0,0,0,[],[],3,6,2 4 3 2 2 4,6,0.0,0.0,0.0,0.0,0.0,0.0,0,0.0,0.0,0.0,0.0,0.0
77,13,2.6880126999985805,3,True,0.5,acc,right,True,2,1,3,ret,1,3,0,"['4', '2', '4', '4', '3', '2']","[64.46868480000012, 64.98060269999951, 65.26066929999979, 66.74854219999906, 66.9246991, 67.1566974999987]",3,6,# # # # # #,None,64.46868480000012,64.98060269999951,65.26066929999979,66.74854219999906,66.9246991,67.1566974999987,0.7957003000010445,0.5119178999993892,0.28006660000028205,1.4878728999992745,0.1761569000009331,0.23199839999870164
78,14,0.0,2,False,0.0,None,right,False,2,1,0,enc,0,0,0,[],[],3,6,2 3 4 4 1 2,4,0.0,0.0,0.0,0.0,0.0,0.0,0,0.0,0.0,0.0,0.0,0.0
79,15,2.880090999999084,2,True,0.5,acc,right,False,2,1,6,ret,1,10,0,"['2', '1', '4', '4', '3', '2']","[76.09250830000019, 76.36467409999932, 77.20452419999856, 77.48460139999952, 78.74872569999934, 78.97259929999927]",3,6,# # # # # #,None,76.09250830000019,76.36467409999932,77.20452419999856,77.48460139999952,78.74872569999934,78.97259929999927,2.435810800001491,0.2721657999991294,0.8398500999992393,0.28007720000096015,1.2641242999998212,0.2238735999999335
80,16,0.0,3,False,0.0,None,right,False,2,1,0,enc,0,0,1,[],[],3,6,2 1 1 2 4 1,6,0.0,0.0,0.0,0.0,0.0,0.0,0,0.0,0.0,0.0,0.0,0.0
81,17,1.2796531000003597,3,True,0.5,acc,right,False,2,1,6,ret,1,10,1,"['2', '1', '1', '2', '4', '1']","[85.8449262999984, 86.1405450000002, 86.34066349999921, 86.62865779999993, 86.84478010000021, 87.12457939999877]",3,6,# # # # # #,None,85.8449262999984,86.1405450000002,86.34066349999921,86.62865779999993,86.84478010000021,87.12457939999877,0.37232699999913166,0.29561870000179624,0.20011849999900733,0.2879943000007188,0.2161223000002792,0.2797992999985581
82,18,0.0,3,False,0.0,None,right,False,2,1,0,enc,0,0,0,[],[],3,6,3 2 1 1 3 2,6,0.0,0.0,0.0,0.0,0.0,0.0,0,0.0,0.0,0.0,0.0,0.0
83,19,1.7680032999996909,3,True,0.5,acc,right,True,2,1,4,ret,1,4,0,"['3', '2', '1', '1', '2', '3']","[95.62859769999886, 95.83655729999919, 96.10863569999856, 96.99655459999849, 97.17263490000005, 97.39660099999855]",3,6,# # # # # #,None,95.62859769999886,95.83655729999919,96.10863569999856,96.99655459999849,97.17263490000005,97.39660099999855,2.004018300000098,0.2079596000003221,0.2720783999993728,0.8879188999999315,0.1760803000015585,0.22396609999850625
84,20,0.0,2,False,0.0,None,right,False,2,1,0,enc,0,0,1,[],[],3,6,1 4 1 4 2 1,4,0.0,0.0,0.0,0.0,0.0,0.0,0,0.0,0.0,0.0,0.0,0.0
85,21,1.4640404000001583,2,True,0.5,acc,right,False,2,1,6,ret,1,10,1,"['1', '4', '1', '4', '2', '1']","[106.00455559999864, 106.33257129999947, 106.58854789999896, 106.82054280000011, 107.26052739999977, 107.4685959999988]",3,6,# # # # # #,None,106.00455559999864,106.33257129999947,106.58854789999896,106.82054280000011,107.26052739999977,107.4685959999988,2.1079546000000846,0.328015700000833,0.2559765999994852,0.23199490000115475,0.43998459999966144,0.20806859999902372
86,22,0.0,2,False,0.0,None,right,False,2,1,0,enc,0,0,1,[],[],3,6,1 3 2 1 1 3,4,0.0,0.0,0.0,0.0,0.0,0.0,0,0.0,0.0,0.0,0.0,0.0
87,23,1.112023699999554,2,True,0.5,acc,right,False,2,1,6,ret,1,10,1,"['1', '3', '2', '1', '1', '3']","[115.95660580000003, 116.26038960000005, 116.48457090000011, 116.67658099999971, 116.88458749999882, 117.06862949999959]",3,6,# # # # # #,None,115.95660580000003,116.26038960000005,116.48457090000011,116.67658099999971,116.88458749999882,117.06862949999959,1.9880098000012367,0.30378380000001926,0.22418130000005476,0.1920100999996066,0.20800649999910092,0.18404200000077253
88,0,0.0,2,False,0.0,None,right,False,2,1,0,enc,0,0,1,[],[],4,6,4 4 1 3 2 2,4,0.0,0.0,0.0,0.0,0.0,0.0,0,0.0,0.0,0.0,0.0,0.0
89,1,0.9280438000005232,2,True,0.5,acc,right,False,2,1,6,ret,1,10,1,"['4', '4', '1', '3', '2', '2']","[7.164873499999885, 7.3248347000007925, 7.556791400000293, 7.725110600000335, 7.916807800000242, 8.092917300000408]",4,6,# # # # # #,None,7.164873499999885,7.3248347000007925,7.556791400000293,7.725110600000335,7.916807800000242,8.092917300000408,NaN,0.1599612000009074,0.23195669999950042,0.16831920000004175,0.19169719999990775,0.176109500000166
90,2,0.0,2,False,0.0,None,right,False,2,1,0,enc,0,0,0,[],[],4,6,3 2 1 3 4 3,4,0.0,0.0,0.0,0.0,0.0,0.0,0,0.0,0.0,0.0,0.0,0.0
91,3,3.048989299999448,2,True,0.5,acc,right,True,2,1,4,ret,1,4,0,"['3', '1', '3', '4', '2', '3']","[16.69277780000084, 16.9967871000008, 18.389605700000175, 18.66086280000127, 19.5567415000005, 19.74176710000029]",4,6,# # # # # #,None,16.69277780000084,16.9967871000008,18.389605700000175,18.66086280000127,19.5567415000005,19.74176710000029,2.099860500000432,0.3040092999999615,1.392818599999373,0.27125710000109393,0.8958786999992299,0.18502559999978985
92,4,0.0,3,False,0.0,None,right,False,2,1,0,enc,0,0,0,[],[],4,6,2 3 2 3 1 2,6,0.0,0.0,0.0,0.0,0.0,0.0,0,0.0,0.0,0.0,0.0,0.0
93,5,2.7839951000005385,3,True,0.5,acc,right,True,2,1,2,ret,1,2,0,"['1', '2', '3', '3', '4', '2']","[29.116847999999663, 29.676767900000414, 29.96472040000117, 31.35678469999948, 31.6607982000005, 31.900843100000202]",4,6,# # # # # #,None,29.116847999999663,29.676767900000414,29.96472040000117,31.35678469999948,31.6607982000005,31.900843100000202,2.875080899999375,0.5599199000007502,0.2879525000007561,1.3920642999983102,0.30401350000101957,0.24004489999970247
94,6,0.0,3,False,0.0,None,right,False,2,1,0,enc,0,0,1,[],[],4,6,4 4 4 2 2 1,6,0.0,0.0,0.0,0.0,0.0,0.0,0,0.0,0.0,0.0,0.0,0.0
95,7,1.2319024999997057,3,True,0.5,acc,right,False,2,1,6,ret,1,10,1,"['4', '4', '4', '2', '2', '1']","[38.3888605000011, 38.58083110000007, 38.74133030000121, 39.262059800001225, 39.4127497999998, 39.62076300000081]",4,6,# # # # # #,None,38.3888605000011,38.58083110000007,38.74133030000121,39.262059800001225,39.4127497999998,39.62076300000081,-0.011982599999100785,0.19197059999896737,0.1604992000011407,0.5207295000000158,0.15068999999857624,0.20801320000100532
96,8,0.0,2,False,0.0,None,right,False,2,1,0,enc,0,0,1,[],[],4,6,3 1 4 3 4 1,4,0.0,0.0,0.0,0.0,0.0,0.0,0,0.0,0.0,0.0,0.0,0.0
97,9,1.8639172999992293,2,True,0.5,acc,right,True,2,1,5,ret,1,5,1,"['3', '1', '4', '3', '3', '1']","[48.396823200000654, 48.69282949999979, 49.23675999999978, 49.50076970000009, 50.03681300000062, 50.26074049999988]",4,6,# # # # # #,None,48.396823200000654,48.69282949999979,49.23675999999978,49.50076970000009,50.03681300000062,50.26074049999988,2.276060199999847,0.2960062999991351,0.5439304999999877,0.2640097000003152,0.5360433000005287,0.2239274999992631
98,10,0.0,3,False,0.0,None,right,False,2,1,0,enc,0,0,1,[],[],4,6,3 1 4 2 4 3,6,0.0,0.0,0.0,0.0,0.0,0.0,0,0.0,0.0,0.0,0.0,0.0
99,11,3.631976799999393,3,True,0.5,acc,right,True,2,1,4,ret,1,4,1,"['3', '1', '4', '2', '3', '4']","[56.94071690000055, 57.19656229999964, 57.79664279999997, 60.1487003000002, 60.324745600000824, 60.572693699999945]",4,6,# # # # # #,None,56.94071690000055,57.19656229999964,57.79664279999997,60.1487003000002,60.324745600000824,60.572693699999945,0.17997640000066895,0.25584539999908884,0.6000805000003311,2.352057500000228,0.17604530000062368,0.24794809999912104
100,12,0.0,2,False,0.0,None,right,False,2,1,0,enc,0,0,0,[],[],4,6,2 1 4 1 4 4,4,0.0,0.0,0.0,0.0,0.0,0.0,0,0.0,0.0,0.0,0.0,0.0
101,13,3.0718963999988773,2,True,0.5,acc,right,True,2,1,4,ret,1,4,0,"['4', '4', '1', '4', '2', '1']","[69.08479960000113, 69.26071559999946, 70.73269720000098, 70.95666870000059, 71.96480950000114, 72.15669600000001]",4,6,# # # # # #,None,69.08479960000113,69.26071559999946,70.73269720000098,70.95666870000059,71.96480950000114,72.15669600000001,2.0121059000011883,0.17591599999832397,1.4719816000015271,0.22397149999960675,1.0081408000005467,0.19188649999887275
102,14,0.0,3,False,0.0,None,right,False,2,1,0,enc,0,0,0,[],[],4,6,4 4 4 2 2 3,6,0.0,0.0,0.0,0.0,0.0,0.0,0,0.0,0.0,0.0,0.0,0.0
103,15,1.1359525999996551,3,True,0.5,acc,right,False,2,1,6,ret,1,10,0,"['3', '2', '2', '4', '4', '4']","[79.38875270000062, 79.6526759999997, 79.84479029999966, 80.11667239999952, 80.33267520000118, 80.52470530000028]",4,6,# # # # # #,None,79.38875270000062,79.6526759999997,79.84479029999966,80.11667239999952,80.33267520000118,80.52470530000028,0.7320567000006122,0.26392329999907815,0.19211429999995744,0.271882099999857,0.21600280000166094,0.19203009999910137
104,16,0.0,2,False,0.0,None,right,False,2,1,0,enc,0,0,1,[],[],4,6,4 2 3 2 4 3,4,0.0,0.0,0.0,0.0,0.0,0.0,0,0.0,0.0,0.0,0.0,0.0
105,17,1.648027400000501,2,True,0.5,acc,right,False,2,1,6,ret,1,10,1,"['4', '2', '3', '2', '4', '3']","[89.34864519999974, 89.68475620000027, 90.22068209999998, 90.48474530000021, 90.7487686000004, 90.99667260000024]",4,6,# # # # # #,None,89.34864519999974,89.68475620000027,90.22068209999998,90.48474530000021,90.7487686000004,90.99667260000024,2.323939899999459,0.3361110000005283,0.535925899999711,0.264063200000237,0.2640233000001899,0.24790399999983492
106,18,0.0,2,False,0.0,None,right,False,2,1,0,enc,0,0,0,[],[],4,6,4 4 2 3 3 4,4,0.0,0.0,0.0,0.0,0.0,0.0,0,0.0,0.0,0.0,0.0,0.0
107,19,4.143995999998879,2,True,0.5,acc,right,True,2,1,5,ret,1,5,0,"['4', '3', '4', '2', '4', '4']","[99.79675660000066, 100.05264990000069, 102.38061200000084, 102.64469240000108, 103.7566526999999, 103.94075259999954]",4,6,# # # # # #,None,99.79675660000066,100.05264990000069,102.38061200000084,102.64469240000108,103.7566526999999,103.94075259999954,2.3000840000004246,0.2558933000000252,2.32796210000015,0.264080400000239,1.1119602999988274,0.18409989999963727
108,20,0.0,3,False,0.0,None,right,False,2,1,0,enc,0,0,1,[],[],4,6,3 3 3 1 1 2,6,0.0,0.0,0.0,0.0,0.0,0.0,0,0.0,0.0,0.0,0.0,0.0
109,21,0.9200407999996968,3,True,0.5,acc,right,False,2,1,6,ret,1,10,1,"['3', '3', '3', '1', '1', '2']","[110.5485950000002, 110.7166599000011, 110.89322530000027, 111.10064469999998, 111.26868520000062, 111.4686357999999]",4,6,# # # # # #,None,110.5485950000002,110.7166599000011,110.89322530000027,111.10064469999998,111.26868520000062,111.4686357999999,0.10784240000066347,0.1680649000008998,0.17656539999916276,0.20741939999970782,0.16804050000064308,0.19995059999928344
110,22,0.0,3,False,0.0,None,right,False,2,1,0,enc,0,0,0,[],[],4,6,1 4 3 2 2 1,6,0.0,0.0,0.0,0.0,0.0,0.0,0,0.0,0.0,0.0,0.0,0.0
111,23,3.1598856000000524,3,True,0.5,acc,right,True,2,1,3,ret,1,3,0,"['1', '2', '2', '1', '3', '4']","[118.78875119999975, 119.22063440000056, 119.8206924999995, 121.40504630000032, 121.75658670000121, 121.9486367999998]",4,6,# # # # # #,None,118.78875119999975,119.22063440000056,119.8206924999995,121.40504630000032,121.75658670000121,121.9486367999998,0.8201153999998496,0.4318832000008115,0.6000580999989324,1.5843538000008266,0.3515404000008857,0.19205009999859612
112,0,0.0,3,False,0.0,None,right,False,2,1,0,enc,0,0,1,[],[],5,6,4 3 1 1 1 1,6,0.0,0.0,0.0,0.0,0.0,0.0,0,0.0,0.0,0.0,0.0,0.0
113,1,1.2720192000015231,3,True,0.5,acc,right,False,2,1,6,ret,1,10,1,"['4', '3', '1', '1', '1', '1']","[4.9355015000001, 5.271515200000067, 5.559669700000086, 5.871472500000891, 6.039587400000528, 6.2075207000016235]",5,6,# # # # # #,None,4.9355015000001,5.271515200000067,5.559669700000086,5.871472500000891,6.039587400000528,6.2075207000016235,NaN,0.3360136999999668,0.28815450000001874,0.3118028000008053,0.1681148999996367,0.16793330000109563
114,2,0.0,3,False,0.0,None,right,False,2,1,0,enc,0,0,1,[],[],5,6,2 4 2 3 2 4,6,0.0,0.0,0.0,0.0,0.0,0.0,0,0.0,0.0,0.0,0.0,0.0
115,3,2.623917099999744,3,True,0.5,acc,right,True,2,1,3,ret,1,3,1,"['2', '4', '2', '2', '4', '3']","[12.887462100001358, 13.23140560000138, 13.511472300000605, 14.823440000000119, 15.23145580000164, 15.511379200001102]",5,6,# # # # # #,None,12.887462100001358,13.23140560000138,13.511472300000605,14.823440000000119,15.23145580000164,15.511379200001102,0.17994139999973413,0.34394350000002305,0.2800666999992245,1.3119676999995136,0.4080158000015217,0.27992339999946125
116,4,0.0,2,False,0.0,None,right,False,2,1,0,enc,0,0,1,[],[],5,6,4 3 3 2 2 2,4,0.0,0.0,0.0,0.0,0.0,0.0,0,0.0,0.0,0.0,0.0,0.0
117,5,1.888063099999272,2,True,0.5,acc,right,True,2,1,4,ret,1,4,1,"['4', '3', '2', '3', '2', '2']","[24.295449300001565, 24.55986800000028, 25.47951970000031, 25.743410099999892, 26.007322400000703, 26.183512400000836]",5,6,# # # # # #,None,24.295449300001565,24.55986800000028,25.47951970000031,25.743410099999892,26.007322400000703,26.183512400000836,2.284070100000463,0.26441869999871415,0.9196517000000313,0.26389039999958186,0.26391230000081123,0.1761900000001333
118,6,0.0,2,False,0.0,None,right,False,2,1,0,enc,0,0,1,[],[],5,6,2 3 1 3 2 3,4,0.0,0.0,0.0,0.0,0.0,0.0,0,0.0,0.0,0.0,0.0,0.0
119,7,1.439711900000475,2,True,0.5,acc,right,False,2,1,6,ret,1,10,1,"['2', '3', '1', '3', '2', '3']","[35.03972960000101, 35.359485900000436, 35.655476900001304, 35.951431700001194, 36.19935059999989, 36.479441500001485]",5,6,# # # # # #,None,35.03972960000101,35.359485900000436,35.655476900001304,35.951431700001194,36.19935059999989,36.479441500001485,2.3562172000001738,0.3197562999994261,0.29599100000086764,0.2959547999998904,0.24791889999869454,0.2800909000015963
120,8,0.0,2,False,0.0,None,right,False,2,1,0,enc,0,0,0,[],[],5,6,3 2 3 1 3 4,4,0.0,0.0,0.0,0.0,0.0,0.0,0,0.0,0.0,0.0,0.0,0.0
121,9,3.1280538999999408,2,True,0.5,acc,right,False,2,1,6,ret,1,10,0,"['4', '3', '1', '3', '2', '3']","[46.58338960000037, 46.87928210000064, 48.13549530000091, 48.36766610000086, 49.503353200001584, 49.711443500000314]",5,6,# # # # # #,None,46.58338960000037,46.87928210000064,48.13549530000091,48.36766610000086,49.503353200001584,49.711443500000314,3.603948099998888,0.2958925000002637,1.2562132000002748,0.23217079999994894,1.1356871000007231,0.2080902999987302
122,10,0.0,3,False,0.0,None,right,False,2,1,0,enc,0,0,0,[],[],5,6,1 3 1 4 1 1,6,0.0,0.0,0.0,0.0,0.0,0.0,0,0.0,0.0,0.0,0.0,0.0
123,11,2.4797273999993195,3,True,0.5,acc,right,True,2,1,3,ret,1,3,0,"['1', '1', '4', '3', '2', '3']","[62.69552030000159, 63.52747260000069, 63.91942430000017, 64.75945700000011, 64.99160579999989, 65.17524770000091]",5,6,# # # # # #,None,62.69552030000159,63.52747260000069,63.91942430000017,64.75945700000011,64.99160579999989,65.17524770000091,6.484076800001276,0.8319522999991023,0.3919516999994812,0.8400326999999379,0.2321487999997771,0.18364190000102099
124,12,0.0,3,False,0.0,None,right,False,2,1,0,enc,0,0,0,[],[],5,6,3 3 4 4 1 1,6,0.0,0.0,0.0,0.0,0.0,0.0,0,0.0,0.0,0.0,0.0,0.0
125,13,2.6723772999994253,3,True,0.5,acc,right,True,2,1,4,ret,1,4,0,"['1', '1', '4', '3', '4', '3']","[74.11136260000058, 75.1673479000001, 75.41536220000125, 76.35945350000111, 76.59940530000131, 76.7837399]",5,6,# # # # # #,None,74.11136260000058,75.1673479000001,75.41536220000125,76.35945350000111,76.59940530000131,76.7837399,2.436114899999666,1.05598529999952,0.24801430000115943,0.9440912999998545,0.239951800000199,0.18433459999869228
126,14,0.0,2,False,0.0,None,right,False,2,1,0,enc,0,0,0,[],[],5,6,1 4 1 2 4 4,4,0.0,0.0,0.0,0.0,0.0,0.0,0,0.0,0.0,0.0,0.0,0.0
127,15,4.0083911000001535,2,True,0.5,acc,right,False,2,1,6,ret,1,10,0,"['4', '4', '2', '1', '4', '1']","[87.1752833999999, 87.53530040000078, 90.15131480000127, 90.40742600000158, 90.93529920000037, 91.18367450000005]",5,6,# # # # # #,None,87.1752833999999,87.53530040000078,90.15131480000127,90.40742600000158,90.93529920000037,91.18367450000005,3.891543499999898,0.3600170000008802,2.616014400000495,0.25611120000030496,0.527873199998794,0.24837529999967956
128,16,0.0,2,False,0.0,None,right,False,2,1,0,enc,0,0,1,[],[],5,6,1 2 2 1 4 2,4,0.0,0.0,0.0,0.0,0.0,0.0,0,0.0,0.0,0.0,0.0,0.0
129,17,1.20807479999894,2,True,0.5,acc,right,False,2,1,6,ret,1,10,1,"['1', '2', '2', '1', '4', '2']","[99.90328780000164, 100.14336860000003, 100.41528840000137, 100.64747429999989, 100.89590190000126, 101.11136260000058]",5,6,# # # # # #,None,99.90328780000164,100.14336860000003,100.41528840000137,100.64747429999989,100.89590190000126,101.11136260000058,2.2196133000015834,0.24008079999839538,0.2719198000013421,0.23218589999851247,0.24842760000137787,0.21546069999931206
130,18,0.0,3,False,0.0,None,right,False,2,1,0,enc,0,0,1,[],[],5,6,2 2 1 3 1 3,6,0.0,0.0,0.0,0.0,0.0,0.0,0,0.0,0.0,0.0,0.0,0.0
131,19,1.3439371999993457,3,True,0.5,acc,right,True,2,1,5,ret,1,5,1,"['2', '2', '1', '3', '2', '3']","[107.99135560000104, 108.21532130000014, 108.43130530000053, 108.9512792000005, 109.15961340000104, 109.33529280000039]",5,6,# # # # # #,None,107.99135560000104,108.21532130000014,108.43130530000053,108.9512792000005,109.15961340000104,109.33529280000039,0.3799930000004679,0.22396569999909843,0.21598400000038964,0.5199738999999681,0.20833420000053593,0.17567939999935334
132,20,0.0,2,False,0.0,None,right,False,2,1,0,enc,0,0,0,[],[],5,6,3 4 2 3 1 4,4,0.0,0.0,0.0,0.0,0.0,0.0,0,0.0,0.0,0.0,0.0,0.0
133,21,2.9598975999997483,2,True,0.5,acc,right,True,2,1,2,ret,1,2,0,"['4', '1', '4', '1', '3', '2']","[118.45535680000103, 118.72737039999993, 120.56727090000095, 120.83934210000007, 121.20726150000155, 121.41525440000078]",5,6,# # # # # #,None,118.45535680000103,118.72737039999993,120.56727090000095,120.83934210000007,121.20726150000155,121.41525440000078,2.6200640000006388,0.27201359999889974,1.839900500001022,0.2720711999991181,0.36791940000148315,0.2079928999992262
134,22,0.0,3,False,0.0,None,right,False,2,1,0,enc,0,0,0,[],[],5,6,2 3 3 3 4 2,6,0.0,0.0,0.0,0.0,0.0,0.0,0,0.0,0.0,0.0,0.0,0.0
135,23,2.575891300000876,3,True,0.5,acc,right,True,2,1,3,ret,1,3,0,"['2', '4', '3', '2', '2', '1']","[130.43137639999986, 131.7512413000004, 132.07125390000147, 132.63946600000054, 132.81524230000105, 133.00726770000074]",5,6,# # # # # #,None,130.43137639999986,131.7512413000004,132.07125390000147,132.63946600000054,132.81524230000105,133.00726770000074,2.5161219999990863,1.319864900000539,0.32001260000106413,0.568212099999073,0.17577630000050704,0.19202539999969304
136,0,0.0,2,False,0.0,None,right,False,2,1,0,enc,0,0,1,[],[],6,6,2 3 1 1 2 3,4,0.0,0.0,0.0,0.0,0.0,0.0,0,0.0,0.0,0.0,0.0,0.0
137,1,0.991910500000813,2,True,0.5,acc,right,False,2,1,6,ret,1,10,1,"['2', '3', '1', '1', '2', '3']","[7.79568719999952, 8.0276673999997, 8.259690200000477, 8.451706899999408, 8.68361460000051, 8.787597700000333]",6,6,# # # # # #,None,7.79568719999952,8.0276673999997,8.259690200000477,8.451706899999408,8.68361460000051,8.787597700000333,NaN,0.23198020000018005,0.23202280000077735,0.19201669999893056,0.23190770000110206,0.10398309999982303
138,2,0.0,3,False,0.0,None,right,False,2,1,0,enc,0,0,1,[],[],6,6,2 3 3 4 2 2,6,0.0,0.0,0.0,0.0,0.0,0.0,0,0.0,0.0,0.0,0.0,0.0
139,3,1.1200516000008065,3,True,0.5,acc,right,False,2,1,6,ret,1,10,1,"['2', '3', '3', '4', '2', '2']","[15.363566199999696, 15.611464699999487, 15.7874838000007, 16.019654800000353, 16.243691699999545, 16.483617800000502]",6,6,# # # # # #,None,15.363566199999696,15.611464699999487,15.7874838000007,16.019654800000353,16.243691699999545,16.483617800000502,0.0759684999993624,0.24789849999979197,0.1760191000012128,0.23217099999965285,0.22403689999919152,0.23992610000095738
140,4,0.0,2,False,0.0,None,right,False,2,1,0,enc,0,0,0,[],[],6,6,3 1 2 4 4 4,4,0.0,0.0,0.0,0.0,0.0,0.0,0,0.0,0.0,0.0,0.0,0.0
141,5,2.768038100000922,2,True,0.5,acc,right,True,2,1,4,ret,1,4,0,"['4', '4', '4', '2', '3', '1']","[25.09157849999974, 25.267451400000937, 26.755622500000754, 26.971643900000345, 27.635525400000915, 27.859616600000663]",6,6,# # # # # #,None,25.09157849999974,25.267451400000937,26.755622500000754,26.971643900000345,27.635525400000915,27.859616600000663,2.1079606999992393,0.17587290000119538,1.4881710999998177,0.21602139999959036,0.6638815000005707,0.22409119999974791
142,6,0.0,3,False,0.0,None,right,False,2,1,0,enc,0,0,1,[],[],6,6,3 3 1 3 2 2,6,0.0,0.0,0.0,0.0,0.0,0.0,0,0.0,0.0,0.0,0.0,0.0
143,7,1.0639855999997962,3,True,0.5,acc,right,False,2,1,6,ret,1,10,1,"['3', '3', '1', '3', '2', '2']","[34.57165270000041, 34.723567099999855, 34.93158140000014, 35.2526629999993, 35.44363879999946, 35.63563830000021]",6,6,# # # # # #,None,34.57165270000041,34.723567099999855,34.93158140000014,35.2526629999993,35.44363879999946,35.63563830000021,0.21203609999975015,0.15191439999944123,0.2080143000002863,0.32108159999916097,0.19097580000016023,0.1919995000007475
144,8,0.0,2,False,0.0,None,right,False,2,1,0,enc,0,0,1,[],[],6,6,1 2 2 2 4 1,4,0.0,0.0,0.0,0.0,0.0,0.0,0,0.0,0.0,0.0,0.0,0.0
145,9,1.135900199999014,2,True,0.5,acc,right,False,2,1,6,ret,1,10,1,"['1', '2', '2', '2', '4', '1']","[44.17168370000036, 44.42758119999962, 44.63542690000031, 44.83553849999953, 45.03558949999933, 45.30758389999937]",6,6,# # # # # #,None,44.17168370000036,44.42758119999962,44.63542690000031,44.83553849999953,45.03558949999933,45.30758389999937,2.036045400000148,0.25589749999926426,0.20784570000068925,0.20011159999921802,0.20005099999980303,0.2719944000000396
146,10,0.0,3,False,0.0,None,right,False,2,1,0,enc,0,0,1,[],[],6,6,3 1 4 4 2 4,6,0.0,0.0,0.0,0.0,0.0,0.0,0,0.0,0.0,0.0,0.0,0.0
147,11,1.271839799999725,3,True,0.5,acc,right,False,2,1,6,ret,1,10,1,"['3', '1', '4', '4', '2', '4']","[51.94760330000099, 52.14757559999998, 52.34753169999931, 52.82755069999985, 53.0437036000003, 53.21944310000072]",6,6,# # # # # #,None,51.94760330000099,52.14757559999998,52.34753169999931,52.82755069999985,53.0437036000003,53.21944310000072,0.14001940000161994,0.1999722999989899,0.1999560999993264,0.48001900000053865,0.21615290000045206,0.17573950000041805
148,12,0.0,3,False,0.0,None,right,False,2,1,0,enc,0,0,0,[],[],6,6,3 4 1 3 4 2,6,0.0,0.0,0.0,0.0,0.0,0.0,0,0.0,0.0,0.0,0.0,0.0
149,13,3.7040851000001567,3,True,0.5,acc,right,True,2,1,3,ret,1,3,0,"['2', '4', '3', '2', '1', '2']","[61.97149560000071, 62.96355550000044, 63.41957920000095, 65.2994777999993, 65.50740580000092, 65.67558070000086]",6,6,# # # # # #,None,61.97149560000071,62.96355550000044,63.41957920000095,65.2994777999993,65.50740580000092,65.67558070000086,2.2520524999999907,0.992059899999731,0.4560237000005145,1.8798985999983415,0.2079280000016297,0.16817489999993995
150,14,0.0,3,False,0.0,None,right,False,2,1,0,enc,0,0,0,[],[],6,6,1 2 1 3 1 1,6,0.0,0.0,0.0,0.0,0.0,0.0,0,0.0,0.0,0.0,0.0,0.0
151,15,3.7360112999995176,3,True,0.5,acc,right,True,2,1,4,ret,1,4,0,"['1', '1', '3', '1', '1', '2']","[73.20349850000093, 73.39552209999965, 73.59553819999928, 76.62761390000014, 76.81159339999977, 76.93950980000045]",6,6,# # # # # #,None,73.20349850000093,73.39552209999965,73.59553819999928,76.62761390000014,76.81159339999977,76.93950980000045,1.0279178000000684,0.19202359999871987,0.20001609999962966,3.03207570000086,0.18397949999962293,0.12791640000068583
152,16,0.0,2,False,0.0,None,right,False,2,1,0,enc,0,0,1,[],[],6,6,2 1 4 3 3 2,4,0.0,0.0,0.0,0.0,0.0,0.0,0,0.0,0.0,0.0,0.0,0.0
153,17,1.5839598999991722,2,True,0.5,acc,right,True,2,1,5,ret,1,5,1,"['2', '1', '4', '3', '2', '2']","[85.5155493000002, 85.75536049999937, 86.291478000001, 86.53949979999925, 86.92347209999934, 87.09950919999937]",6,6,# # # # # #,None,85.5155493000002,85.75536049999937,86.291478000001,86.53949979999925,86.92347209999934,87.09950919999937,2.0760394999997516,0.239811199999167,0.5361175000016374,0.24802179999824148,0.38397230000009586,0.17603710000003048
154,18,0.0,2,False,0.0,None,right,False,2,1,0,enc,0,0,0,[],[],6,6,1 4 4 1 2 3,4,0.0,0.0,0.0,0.0,0.0,0.0,0,0.0,0.0,0.0,0.0,0.0
155,19,2.439214300000458,2,True,0.5,acc,right,True,2,1,4,ret,1,4,0,"['2', '3', '1', '4', '4', '1']","[96.42826830000013, 96.64345610000055, 98.24338689999968, 98.50896310000098, 98.65955940000094, 98.86748260000059]",6,6,# # # # # #,None,96.42826830000013,96.64345610000055,98.24338689999968,98.50896310000098,98.65955940000094,98.86748260000059,2.8287591000007524,0.2151878000004217,1.5999307999991288,0.26557620000130555,0.15059629999996105,0.20792319999964093
156,20,0.0,2,False,0.0,None,right,False,2,1,0,enc,0,0,0,[],[],6,6,2 1 2 3 4 4,4,0.0,0.0,0.0,0.0,0.0,0.0,0,0.0,0.0,0.0,0.0,0.0
157,21,2.6800020999999106,2,True,0.5,acc,right,True,2,1,5,ret,1,5,0,"['4', '4', '3', '4', '1', '2']","[107.4194822999998, 107.61944199999925, 109.25139689999924, 109.49150630000076, 109.89135300000089, 110.09948439999971]",6,6,# # # # # #,None,107.4194822999998,107.61944199999925,109.25139689999924,109.49150630000076,109.89135300000089,110.09948439999971,2.0519996999992145,0.19995969999945373,1.6319548999999824,0.24010940000152914,0.39984670000012557,0.2081313999988197
158,22,0.0,3,False,0.0,None,right,False,2,1,0,enc,0,0,0,[],[],6,6,3 1 3 4 2 3,6,0.0,0.0,0.0,0.0,0.0,0.0,0,0.0,0.0,0.0,0.0,0.0
159,23,2.640052499999001,3,True,0.5,acc,right,True,2,1,4,ret,1,4,0,"['3', '2', '4', '1', '2', '3']","[118.54744000000028, 118.9393971999998, 119.24354520000088, 120.81141960000059, 120.98059310000099, 121.18749249999928]",6,6,# # # # # #,None,118.54744000000028,118.9393971999998,119.24354520000088,120.81141960000059,120.98059310000099,121.18749249999928,1.9479556000005687,0.39195719999952416,0.3041480000010779,1.5678743999997096,0.16917350000039733,0.2068993999982922
160,0,0.0,2,False,0.0,None,right,False,2,1,0,enc,0,0,1,[],[],7,6,2 4 4 2 1 3,4,0.0,0.0,0.0,0.0,0.0,0.0,0,0.0,0.0,0.0,0.0,0.0
161,1,1.5195853999994142,2,True,0.5,acc,right,False,2,1,6,ret,1,10,1,"['2', '4', '4', '2', '1', '3']","[7.044123800000307, 7.371663800000533, 7.707894400000441, 8.003849200000332, 8.291770499999984, 8.563709199999721]",7,6,# # # # # #,None,7.044123800000307,7.371663800000533,7.707894400000441,8.003849200000332,8.291770499999984,8.563709199999721,NaN,0.32754000000022643,0.336230599999908,0.2959547999998904,0.28792129999965255,0.27193869999973685
162,2,0.0,3,False,0.0,None,right,False,2,1,0,enc,0,0,1,[],[],7,6,2 4 3 1 4 4,6,0.0,0.0,0.0,0.0,0.0,0.0,0,0.0,0.0,0.0,0.0,0.0
163,3,1.4402119000005769,3,True,0.5,acc,right,False,2,1,6,ret,1,10,1,"['2', '4', '3', '1', '4', '4']","[15.099730399999316, 15.467741200000091, 15.739873200000147, 16.01977910000096, 16.371783599999617, 16.539942299999893]",7,6,# # # # # #,None,15.099730399999316,15.467741200000091,15.739873200000147,16.01977910000096,16.371783599999617,16.539942299999893,0.03602119999959541,0.3680108000007749,0.272132000000056,0.27990590000081284,0.3520044999986567,0.16815870000027644
164,4,0.0,3,False,0.0,None,right,False,2,1,0,enc,0,0,1,[],[],7,6,3 3 4 4 4 1,6,0.0,0.0,0.0,0.0,0.0,0.0,0,0.0,0.0,0.0,0.0,0.0
165,5,2.8156211999994416,3,True,0.5,acc,right,True,2,1,5,ret,1,5,1,"['3', '4', '4', '4', '4', '1']","[23.540030000000115, 23.811643500001082, 24.107832900001085, 24.44384050000008, 25.803745499999422, 26.355651199999556]",7,6,# # # # # #,None,23.540030000000115,23.811643500001082,24.107832900001085,24.44384050000008,25.803745499999422,26.355651199999556,0.500087700000222,0.2716135000009672,0.29618940000000293,0.3360075999989931,1.359904999999344,0.551905700000134
166,6,0.0,2,False,0.0,None,right,False,2,1,0,enc,0,0,1,[],[],7,6,4 1 2 3 3 2,4,0.0,0.0,0.0,0.0,0.0,0.0,0,0.0,0.0,0.0,0.0,0.0
167,7,2.384044899999936,2,True,0.5,acc,right,True,2,1,5,ret,1,5,1,"['4', '1', '2', '3', '4', '2']","[35.08375680000063, 35.435829100000774, 35.72373739999966, 35.971794999999474, 37.25972290000027, 37.467801700000564]",7,6,# # # # # #,None,35.08375680000063,35.435829100000774,35.72373739999966,35.971794999999474,37.25972290000027,37.467801700000564,2.228105600001072,0.35207230000014533,0.28790829999888956,0.24805759999981092,1.2879279000007955,0.208078800000294
168,8,0.0,3,False,0.0,None,right,False,2,1,0,enc,0,0,0,[],[],7,6,3 4 2 1 2 2,6,0.0,0.0,0.0,0.0,0.0,0.0,0,0.0,0.0,0.0,0.0,0.0
169,9,2.7920090999996314,3,True,0.5,acc,right,False,2,1,6,ret,1,10,0,"['2', '2', '1', '2', '4', '3']","[44.46780750000107, 44.68391789999987, 44.92368460000034, 46.80383559999973, 47.05979579999985, 47.259816600000704]",7,6,# # # # # #,None,44.46780750000107,44.68391789999987,44.92368460000034,46.80383559999973,47.05979579999985,47.259816600000704,0.5000058000005083,0.21611039999879722,0.23976670000047307,1.8801509999993868,0.25596020000011777,0.20002080000085698
170,10,0.0,2,False,0.0,None,right,False,2,1,0,enc,0,0,0,[],[],7,6,4 4 3 4 3 3,4,0.0,0.0,0.0,0.0,0.0,0.0,0,0.0,0.0,0.0,0.0,0.0
171,11,2.9520962999995386,2,True,0.5,acc,right,False,2,1,6,ret,1,10,0,"['3', '3', '4', '3', '4', '4']","[56.179694700000255, 56.41168599999946, 57.899629300000015, 58.12369209999997, 58.95578159999968, 59.131790999999794]",7,6,# # # # # #,None,56.179694700000255,56.41168599999946,57.899629300000015,58.12369209999997,58.95578159999968,59.131790999999794,2.4198780999995506,0.23199129999920842,1.487943300000552,0.22406279999995604,0.8320894999997108,0.17600940000011178
172,12,0.0,2,False,0.0,None,right,False,2,1,0,enc,0,0,0,[],[],7,6,4 1 4 1 4 2,4,0.0,0.0,0.0,0.0,0.0,0.0,0,0.0,0.0,0.0,0.0,0.0
173,13,3.896054900000309,2,True,0.5,acc,right,False,2,1,6,ret,1,10,0,"['2', '4', '1', '4', '1', '4']","[68.0357340999999, 68.307758500001, 71.30777900000066, 71.49955279999995, 71.71576939999977, 71.93178900000021]",7,6,# # # # # #,None,68.0357340999999,68.307758500001,71.30777900000066,71.49955279999995,71.71576939999977,71.93178900000021,2.403943100000106,0.27202440000110073,3.000020499999664,0.19177379999928235,0.21621659999982512,0.21601960000043618
174,14,0.0,3,False,0.0,None,right,False,2,1,0,enc,0,0,1,[],[],7,6,2 1 4 3 1 2,6,0.0,0.0,0.0,0.0,0.0,0.0,0,0.0,0.0,0.0,0.0,0.0
175,15,1.2239946000008786,3,True,0.5,acc,right,False,2,1,6,ret,1,10,1,"['2', '1', '4', '3', '1', '2']","[78.95571860000018, 79.17980530000023, 79.5077010999994, 79.73175310000079, 79.97967620000054, 80.17971320000106]",7,6,# # # # # #,None,78.95571860000018,79.17980530000023,79.5077010999994,79.73175310000079,79.97967620000054,80.17971320000106,0.523929599999974,0.2240867000000435,0.32789579999916896,0.22405200000139303,0.2479230999997526,0.2000370000005205
176,16,0.0,2,False,0.0,None,right,False,2,1,0,enc,0,0,0,[],[],7,6,4 4 4 2 4 2,4,0.0,0.0,0.0,0.0,0.0,0.0,0,0.0,0.0,0.0,0.0,0.0
177,17,2.5039438000003438,2,True,0.5,acc,right,True,2,1,1,ret,1,1,0,"['2', '2', '4', '2', '2', '2']","[91.27568659999997, 91.9958788999993, 92.76363739999942, 93.05969759999971, 93.4120483000006, 93.77963040000031]",7,6,# # # # # #,None,91.27568659999997,91.9958788999993,92.76363739999942,93.05969759999971,93.4120483000006,93.77963040000031,4.595973399998911,0.7201922999993258,0.7677585000001272,0.29606020000028366,0.35235070000089763,0.3675820999997086
178,18,0.0,3,False,0.0,None,right,False,2,1,0,enc,0,0,0,[],[],7,6,3 1 4 4 2 4,6,0.0,0.0,0.0,0.0,0.0,0.0,0,0.0,0.0,0.0,0.0,0.0
179,19,3.991992600000231,3,True,0.5,acc,right,True,2,1,3,ret,1,3,0,"['2', '4', '2', '4', '1', '3']","[102.65957669999989, 103.22760899999957, 103.5796448000001, 106.27549379999982, 106.49965119999979, 106.65156930000012]",7,6,# # # # # #,None,102.65957669999989,103.22760899999957,103.5796448000001,106.27549379999982,106.49965119999979,106.65156930000012,2.379946299999574,0.5680322999996861,0.3520358000005217,2.6958489999997255,0.2241573999999673,0.15191810000033001
180,20,0.0,3,False,0.0,None,right,False,2,1,0,enc,0,0,0,[],[],7,6,1 4 2 2 3 4,6,0.0,0.0,0.0,0.0,0.0,0.0,0,0.0,0.0,0.0,0.0,0.0
181,21,3.039949899999556,3,True,0.5,acc,right,False,2,1,6,ret,1,10,0,"['4', '3', '2', '2', '4', '1']","[114.28364710000096, 115.05154630000106, 115.28368790000059, 116.94760950000091, 117.17255380000097, 117.32359700000052]",7,6,# # # # # #,None,114.28364710000096,115.05154630000106,115.28368790000059,116.94760950000091,117.17255380000097,117.32359700000052,1.1320778000008431,0.7678992000001017,0.23214159999952244,1.6639216000003216,0.22494430000006105,0.15104319999954896
182,22,0.0,2,False,0.0,None,right,False,2,1,0,enc,0,0,1,[],[],7,6,1 1 2 1 1 3,4,0.0,0.0,0.0,0.0,0.0,0.0,0,0.0,0.0,0.0,0.0,0.0
183,23,1.007993200000783,2,True,0.5,acc,right,False,2,1,6,ret,1,10,1,"['1', '1', '2', '1', '1', '3']","[125.67568329999995, 125.8676873000004, 126.08368289999999, 126.27559219999966, 126.49966119999954, 126.68367650000073]",7,6,# # # # # #,None,125.67568329999995,125.8676873000004,126.08368289999999,126.27559219999966,126.49966119999954,126.68367650000073,1.8520862999994279,0.19200400000045192,0.21599559999958728,0.1919092999996792,0.22406899999987218,0.18401530000119237
184,0,0.0,2,False,0.0,None,right,False,2,1,0,enc,0,0,1,[],[],8,6,4 2 3 2 2 2,4,0.0,0.0,0.0,0.0,0.0,0.0,0,0.0,0.0,0.0,0.0,0.0
185,1,1.3119315999992978,2,True,0.5,acc,right,False,2,1,6,ret,1,10,1,"['4', '2', '3', '2', '2', '2']","[7.346269899999243, 7.6583449999998265, 7.946157200000016, 8.194196399999782, 8.458141699999032, 8.65820149999854]",8,6,# # # # # #,None,7.346269899999243,7.6583449999998265,7.946157200000016,8.194196399999782,8.458141699999032,8.65820149999854,NaN,0.3120751000005839,0.2878122000001895,0.24803919999976642,0.26394529999925,0.20005979999950796
186,2,0.0,2,False,0.0,None,right,False,2,1,0,enc,0,0,1,[],[],8,6,1 1 1 3 1 4,4,0.0,0.0,0.0,0.0,0.0,0.0,0,0.0,0.0,0.0,0.0,0.0
187,3,1.2000267000003078,2,True,0.5,acc,right,False,2,1,6,ret,1,10,1,"['1', '1', '1', '3', '1', '4']","[17.09009479999986, 17.36213719999978, 17.602106899999853, 17.85816519999935, 18.074241799999072, 18.29012150000017]",8,6,# # # # # #,None,17.09009479999986,17.36213719999978,17.602106899999853,17.85816519999935,18.074241799999072,18.29012150000017,1.9318933000013203,0.2720423999999184,0.23996970000007423,0.2560582999994949,0.21607659999972384,0.21587970000109635
188,4,0.0,2,False,0.0,None,right,False,2,1,0,enc,0,0,0,[],[],8,6,2 1 2 1 3 4,4,0.0,0.0,0.0,0.0,0.0,0.0,0,0.0,0.0,0.0,0.0,0.0
189,5,2.199913499998729,2,True,0.5,acc,right,False,2,1,6,ret,1,10,0,"['4', '3', '1', '2', '1', '2']","[27.330085999999937, 27.57007749999866, 28.91438670000025, 29.113999399998647, 29.338079899998775, 29.529999499998667]",8,6,# # # # # #,None,27.330085999999937,27.57007749999866,28.91438670000025,29.113999399998647,29.338079899998775,29.529999499998667,2.539964499999769,0.23999149999872316,1.3443092000015895,0.19961269999839715,0.22408050000012736,0.19191959999989194
190,6,0.0,2,False,0.0,None,right,False,2,1,0,enc,0,0,1,[],[],8,6,1 3 1 4 2 3,4,0.0,0.0,0.0,0.0,0.0,0.0,0,0.0,0.0,0.0,0.0,0.0
191,7,1.2480634000003192,2,True,0.5,acc,right,False,2,1,6,ret,1,10,1,"['1', '3', '1', '4', '2', '3']","[38.050117099999625, 38.2820415999995, 38.53831809999974, 38.77016579999872, 39.0980600999992, 39.298180499999944]",8,6,# # # # # #,None,38.050117099999625,38.2820415999995,38.53831809999974,38.77016579999872,39.0980600999992,39.298180499999944,2.020117600000958,0.2319244999998773,0.25627650000024005,0.2318476999989798,0.32789430000048014,0.20012040000074194
192,8,0.0,3,False,0.0,None,right,False,2,1,0,enc,0,0,1,[],[],8,6,1 4 3 3 2 2,6,0.0,0.0,0.0,0.0,0.0,0.0,0,0.0,0.0,0.0,0.0,0.0
193,9,2.071871800000736,3,True,0.5,acc,right,False,2,1,6,ret,1,10,1,"['1', '4', '3', '3', '2', '2']","[45.82605879999937, 46.47404469999856, 46.76220589999866, 47.50605889999861, 47.72212539999964, 47.89793060000011]",8,6,# # # # # #,None,45.82605879999937,46.47404469999856,46.76220589999866,47.50605889999861,47.72212539999964,47.89793060000011,0.027878299999429146,0.6479858999991848,0.28816120000010415,0.7438529999999446,0.216066500001034,0.17580520000046818
194,10,0.0,2,False,0.0,None,right,False,2,1,0,enc,0,0,0,[],[],8,6,4 3 3 4 4 1,4,0.0,0.0,0.0,0.0,0.0,0.0,0,0.0,0.0,0.0,0.0,0.0
195,11,3.6320711999997,2,True,0.5,acc,right,True,2,1,5,ret,1,5,0,"['1', '3', '4', '3', '3', '4']","[56.70603949999895, 56.9299790999994, 59.26605120000022, 59.97813059999862, 60.15411940000013, 60.33811069999865]",8,6,# # # # # #,None,56.70603949999895,56.9299790999994,59.26605120000022,59.97813059999862,60.15411940000013,60.33811069999865,2.3081088999988424,0.223939600000449,2.3360721000008198,0.7120793999984016,0.1759888000015053,0.18399129999852448
196,12,0.0,2,False,0.0,None,right,False,2,1,0,enc,0,0,0,[],[],8,6,3 1 3 2 4 2,4,0.0,0.0,0.0,0.0,0.0,0.0,0,0.0,0.0,0.0,0.0,0.0
197,13,3.631774499999665,2,True,0.5,acc,right,False,2,1,6,ret,1,10,0,"['2', '4', '2', '3', '1', '3']","[69.48215279999931, 69.73801119999916, 71.95407039999918, 72.21803569999975, 72.92999009999949, 73.11392729999898]",8,6,# # # # # #,None,69.48215279999931,69.73801119999916,71.95407039999918,72.21803569999975,72.92999009999949,73.11392729999898,2.644042100000661,0.2558583999998518,2.216059200000018,0.26396530000056373,0.7119543999997404,0.18393719999949099
198,14,0.0,3,False,0.0,None,right,False,2,1,0,enc,0,0,1,[],[],8,6,1 3 2 3 3 3,6,0.0,0.0,0.0,0.0,0.0,0.0,0,0.0,0.0,0.0,0.0,0.0
199,15,0.9760183000016696,3,True,0.5,acc,right,False,2,1,6,ret,1,10,1,"['1', '3', '2', '3', '3', '3']","[79.68200329999854, 79.89001029999963, 80.09808559999874, 80.31401310000001, 80.49001099999987, 80.65802160000021]",8,6,# # # # # #,None,79.68200329999854,79.89001029999963,80.09808559999874,80.31401310000001,80.49001099999987,80.65802160000021,0.06807599999956437,0.20800700000108918,0.20807529999910912,0.21592750000127126,0.1759978999998566,0.1680106000003434
200,16,0.0,3,False,0.0,None,right,False,2,1,0,enc,0,0,1,[],[],8,6,4 2 4 4 2 4,6,0.0,0.0,0.0,0.0,0.0,0.0,0,0.0,0.0,0.0,0.0,0.0
201,17,1.7200417000003654,3,True,0.5,acc,right,True,2,1,3,ret,1,3,1,"['4', '2', '4', '2', '4', '2']","[87.2259815999987, 87.45788859999993, 87.65797620000012, 87.87410459999955, 88.15407379999851, 88.94602329999907]",8,6,# # # # # #,None,87.2259815999987,87.45788859999993,87.65797620000012,87.87410459999955,88.15407379999851,88.94602329999907,0.067959999998493,0.23190700000122888,0.2000876000001881,0.2161283999994339,0.2799691999989591,0.7919495000005554
202,18,0.0,3,False,0.0,None,right,False,2,1,0,enc,0,0,0,[],[],8,6,1 2 2 3 1 1,6,0.0,0.0,0.0,0.0,0.0,0.0,0,0.0,0.0,0.0,0.0,0.0
203,19,1.888354700000491,3,True,0.5,acc,right,True,2,1,5,ret,1,5,0,"['1', '1', '3', '2', '2', '4']","[96.93792769999891, 97.12994739999885, 97.33800849999898, 98.45792479999909, 98.62623009999879, 98.8262823999994]",8,6,# # # # # #,None,96.93792769999891,97.12994739999885,97.33800849999898,98.45792479999909,98.62623009999879,98.8262823999994,1.4919043999998394,0.19201969999994617,0.20806110000012268,1.1199163000001136,0.16830529999970167,0.20005230000060692
204,20,0.0,3,False,0.0,None,right,False,2,1,0,enc,0,0,0,[],[],8,6,2 3 1 1 3 4,6,0.0,0.0,0.0,0.0,0.0,0.0,0,0.0,0.0,0.0,0.0,0.0
205,21,1.823983099999168,3,True,0.5,acc,right,False,2,1,6,ret,1,10,0,"['4', '3', '1', '1', '3', '2']","[106.71398090000002, 106.9699899999996, 107.17894979999983, 108.05804639999951, 108.3140330999995, 108.53796399999919]",8,6,# # # # # #,None,106.71398090000002,106.9699899999996,107.17894979999983,108.05804639999951,108.3140330999995,108.53796399999919,1.3876985000006243,0.25600909999957366,0.20895980000022973,0.8790965999996843,0.255986699999994,0.22393089999968652
206,22,0.0,3,False,0.0,None,right,False,2,1,0,enc,0,0,0,[],[],8,6,4 3 2 2 1 3,6,0.0,0.0,0.0,0.0,0.0,0.0,0,0.0,0.0,0.0,0.0,0.0
207,23,2.0160821999998007,3,True,0.5,acc,right,False,2,1,6,ret,1,10,0,"['3', '1', '2', '2', '3', '4']","[119.10595169999942, 119.34592419999899, 119.54603959999986, 120.77792450000015, 120.96180529999947, 121.12203389999922]",8,6,# # # # # #,None,119.10595169999942,119.34592419999899,119.54603959999986,120.77792450000015,120.96180529999947,121.12203389999922,4.067987700000231,0.23997249999956694,0.20011540000086825,1.2318849000002956,0.18388079999931506,0.1602285999997548
