,MT,Unnamed: 0,Unnamed: 0.1,Unnamed: 0.1.1,Unnamed: 0.1.1.1,Unnamed: 0.1.1.1.1,Unnamed: 0.1.1.1.1.1,Unnamed: 0.1.1.1.1.1.1,Unnamed: 0.1.1.1.1.1.1.1,Unnamed: 0.1.1.1.1.1.1.1.1,chunk,display_trial_feedback,feedback_dur,feedback_type,hand,is_error,item_dur,iti_dur,number_correct,phase,phase_type,points,recall_dir,response,response_time,run_number,seq_length,seq_str,trial_dur
0,0.0,0,0.0,0.0,0.0,0.0,0.0,0.0,0.0,0.0,3,False,0.0,None,right,False,2,1,0,enc,0,0,1,[],[],1,6,2 2 2 4 4 3,6
1,2.072000600001047,1,1.0,1.0,1.0,1.0,1.0,1.0,1.0,1.0,3,True,0.5,acc,right,False,2,1,6,ret,1,10,1,"['2', '2', '2', '4', '4', '3']","[7.038577399998758, 7.7745471999987785, 8.142596599998797, 8.54256009999881, 8.806473399999959, 9.110577999999805]",1,6,# # # # # #,None
2,0.0,2,2.0,2.0,2.0,2.0,2.0,2.0,2.0,2.0,3,False,0.0,None,right,False,2,1,0,enc,0,0,1,[],[],1,6,1 3 1 3 1 2,6
3,1.2238667000001442,3,3.0,3.0,3.0,3.0,3.0,3.0,3.0,3.0,3,True,0.5,acc,right,False,2,1,6,ret,1,10,1,"['1', '3', '1', '3', '1', '2']","[16.23211469999842, 16.47856580000007, 16.726458600000115, 16.998551699998643, 17.270749799999976, 17.455981399998564]",1,6,# # # # # #,None
4,0.0,4,4.0,4.0,4.0,4.0,4.0,4.0,4.0,4.0,3,False,0.0,None,right,False,2,1,0,enc,0,0,0,[],[],1,6,4 1 4 3 4 3,6
5,1.8869537000009584,5,5.0,5.0,5.0,5.0,5.0,5.0,5.0,5.0,3,True,0.5,acc,right,False,2,1,6,ret,1,10,0,"['3', '4', '3', '4', '1', '4']","[24.127587699998912, 24.44657229999939, 24.76653299999998, 25.543504100000064, 25.774457399998937, 26.01454139999987]",1,6,# # # # # #,None
6,0.0,6,6.0,6.0,6.0,6.0,6.0,6.0,6.0,6.0,2,False,0.0,None,right,False,2,1,0,enc,0,0,1,[],[],1,6,4 3 4 1 4 4,4
7,0.8969831999984308,7,7.0,7.0,7.0,7.0,7.0,7.0,7.0,7.0,2,True,0.5,acc,right,True,2,1,1,ret,1,1,1,"['1', '1', '1', '1', '1', '1']","[49.76653299999998, 49.93476329999976, 50.110685399999056, 50.28658059999907, 50.47045889999936, 50.66351619999841]",1,6,# # # # # #,None
8,0.0,8,8.0,8.0,8.0,8.0,8.0,8.0,8.0,8.0,2,False,0.0,None,right,False,2,1,0,enc,0,0,0,[],[],1,6,4 1 3 3 1 4,4
9,2.4686118999998143,9,9.0,9.0,9.0,9.0,9.0,9.0,9.0,9.0,2,True,0.5,acc,right,True,2,1,0,ret,1,0,0,"['2', '3', '2', '2', '2', '2']","[58.23405619999903, 59.83847799999967, 60.022404800000004, 60.2466543999999, 60.462462499999674, 60.702668099998846]",1,6,# # # # # #,None
10,0.0,10,10.0,10.0,10.0,10.0,10.0,10.0,10.0,10.0,2,False,0.0,None,right,False,2,1,0,enc,0,0,0,[],[],1,6,1 3 4 2 2 2,4
11,2.0880420999983467,11,11.0,11.0,11.0,11.0,11.0,11.0,11.0,11.0,2,True,0.5,acc,right,True,2,1,4,ret,1,4,0,"['2', '2', '3', '4', '2', '1']","[69.99846160000016, 70.35042549999889, 70.80658129999938, 71.0543719999987, 71.9183811999992, 72.0865036999985]",1,6,# # # # # #,None
12,0.0,12,12.0,12.0,12.0,12.0,12.0,12.0,12.0,12.0,3,False,0.0,None,right,False,2,1,0,enc,0,0,0,[],[],1,6,4 1 1 1 4 3,6
13,1.5998959999997169,13,13.0,13.0,13.0,13.0,13.0,13.0,13.0,13.0,3,True,0.5,acc,right,True,2,1,0,ret,1,0,0,"['2', '2', '2', '2', '2', '2']","[91.96633069999916, 92.1501687, 92.3263165999997, 92.51825189999909, 92.70223780000015, 93.56622669999888]",1,6,# # # # # #,None
14,0.0,14,14.0,14.0,14.0,14.0,14.0,14.0,14.0,14.0,2,False,0.0,None,right,False,2,1,0,enc,0,0,1,[],[],1,6,1 2 3 4 3 1,4
15,1.4160500999987562,15,15.0,15.0,15.0,15.0,15.0,15.0,15.0,15.0,2,True,0.5,acc,right,False,2,1,6,ret,1,10,1,"['1', '2', '3', '4', '3', '1']","[102.58227299999999, 102.86252119999881, 103.1822188999995, 103.46214529999997, 103.7102419999992, 103.99832309999874]",1,6,# # # # # #,None
16,0.0,16,16.0,16.0,16.0,16.0,16.0,0.0,0.0,,3,False,0.0,None,right,False,2,1,0,enc,0,0,1,[],[],1,6,4 2 2 1 1 2,6
17,1.2399906999999075,17,17.0,17.0,17.0,17.0,17.0,1.0,1.0,,3,True,0.5,acc,right,True,2,1,5,ret,1,5,1,"['4', '2', '2', '1', '2', '2']","[5.228579100001298, 5.5005429000011645, 5.716529799999989, 6.0205540000006295, 6.228612300001259, 6.468569800001205]",1,6,# # # # # #,None
18,0.0,18,18.0,18.0,18.0,18.0,18.0,2.0,2.0,,3,False,0.0,None,right,False,2,1,0,enc,0,0,1,[],[],1,6,3 3 2 2 3 3,6
19,1.6560342000011588,19,19.0,19.0,19.0,19.0,19.0,3.0,3.0,,3,True,0.5,acc,right,True,2,1,5,ret,1,5,1,"['3', '3', '2', '2', '2', '3']","[12.852528299999904, 13.084559400000217, 13.37255770000047, 14.092554000000746, 14.292555600000924, 14.508562500001062]",1,6,# # # # # #,None
20,0.0,20,20.0,20.0,20.0,20.0,20.0,4.0,4.0,,2,False,0.0,None,right,False,2,1,0,enc,0,0,0,[],[],1,6,1 4 4 2 2 1,4
21,3.607988300000216,21,21.0,21.0,21.0,21.0,21.0,5.0,5.0,,2,True,0.5,acc,right,True,2,1,2,ret,1,2,0,"['1', '2', '4', '2', '1', '2']","[24.036550900000293, 24.42052760000115, 25.62851150000097, 25.97257830000126, 27.46853960000044, 27.64453920000051]",1,6,# # # # # #,None
22,0.0,22,22.0,22.0,22.0,22.0,22.0,6.0,6.0,,3,False,0.0,None,right,False,2,1,0,enc,0,0,0,[],[],1,6,2 3 3 2 4 1,6
23,4.31196749999981,23,23.0,23.0,23.0,23.0,23.0,7.0,7.0,,3,True,0.5,acc,right,True,2,1,4,ret,1,4,0,"['1', '4', '2', '3', '2', '3']","[35.02048930000092, 35.71648219999952, 36.01250660000005, 37.0765334000007, 38.57255819999955, 39.33245680000073]",1,6,# # # # # #,None
24,0.0,24,24.0,24.0,24.0,24.0,24.0,8.0,8.0,,2,False,0.0,None,right,False,2,1,0,enc,0,0,0,[],[],1,6,4 3 2 1 3 4,4
25,1.5919711000005918,25,25.0,25.0,25.0,25.0,25.0,9.0,9.0,,2,True,0.5,acc,right,True,2,1,0,ret,1,0,0,"['1', '2', '4', '3', '1', '2']","[48.73249650000071, 49.07660130000113, 49.4364084000008, 49.748477600000115, 50.12453210000058, 50.3244676000013]",1,6,# # # # # #,None
26,0.0,26,26.0,26.0,26.0,26.0,26.0,10.0,10.0,,2,False,0.0,None,right,False,2,1,0,enc,0,0,1,[],[],1,6,4 3 3 1 1 2,4
27,1.5440967000013188,27,27.0,27.0,27.0,27.0,27.0,11.0,11.0,,2,True,0.5,acc,right,False,2,1,6,ret,1,10,1,"['4', '3', '3', '1', '1', '2']","[59.484458599999925, 59.82038830000056, 60.14047920000121, 60.452537200000734, 60.756520300001284, 61.028555300001244]",1,6,# # # # # #,None
28,0.0,28,28.0,28.0,28.0,28.0,28.0,12.0,12.0,,3,False,0.0,None,right,False,2,1,0,enc,0,0,0,[],[],1,6,2 3 4 2 2 1,6
29,2.6721360000010463,29,29.0,29.0,29.0,29.0,29.0,13.0,13.0,,3,True,0.5,acc,right,True,2,1,4,ret,1,4,0,"['1', '2', '2', '1', '3', '4']","[67.38040050000018, 67.64445530000012, 67.8284089000008, 69.66870970000127, 69.83649130000049, 70.05253650000122]",1,6,# # # # # #,None
30,0.0,30,30.0,30.0,30.0,30.0,30.0,14.0,14.0,,2,False,0.0,None,right,False,2,1,0,enc,0,0,1,[],[],1,6,4 2 3 4 2 1,4
31,1.4959686999991393,31,31.0,31.0,31.0,31.0,31.0,15.0,15.0,,2,True,0.5,acc,right,True,2,1,5,ret,1,5,1,"['4', '2', '3', '1', '2', '1']","[79.27643780000108, 79.56434050000098, 79.78851570000006, 80.05242250000083, 80.5564415000008, 80.77240650000022]",1,6,# # # # # #,None
32,0.0,32,32.0,32.0,32.0,32.0,32.0,16.0,16.0,,2,False,0.0,None,right,False,2,1,0,enc,0,0,1,[],[],1,6,1 4 1 3 2 4,4
33,1.8479651999987248,33,33.0,33.0,33.0,33.0,33.0,17.0,17.0,,2,True,0.5,acc,right,True,2,1,4,ret,1,4,1,"['1', '4', '1', '3', '4', '2']","[89.50053000000116, 89.87640330000067, 90.15652390000105, 90.39632730000085, 91.14841390000038, 91.34849519999989]",1,6,# # # # # #,None
34,0.0,34,34.0,34.0,34.0,34.0,34.0,18.0,18.0,,3,False,0.0,None,right,False,2,1,0,enc,0,0,0,[],[],1,6,2 3 3 3 3 4,6
35,1.9359507000008307,35,35.0,35.0,35.0,35.0,35.0,19.0,19.0,,3,True,0.5,acc,right,False,2,1,6,ret,1,10,0,"['4', '3', '3', '3', '3', '2']","[98.78038930000002, 99.06048329999976, 99.25257559999955, 100.3642916000008, 100.54046680000101, 100.71634000000086]",1,6,# # # # # #,None
36,0.0,36,36.0,36.0,36.0,36.0,36.0,20.0,20.0,,3,False,0.0,None,right,False,2,1,0,enc,0,0,1,[],[],1,6,1 1 3 2 2 4,6
37,0.8640854000004765,37,37.0,37.0,37.0,37.0,37.0,21.0,21.0,,3,True,0.5,acc,right,False,2,1,6,ret,1,10,1,"['1', '1', '3', '2', '2', '4']","[107.20435809999981, 107.35627060000115, 107.54925000000003, 107.74074170000131, 107.89244640000106, 108.06844350000028]",1,6,# # # # # #,None
38,0.0,38,38.0,38.0,38.0,38.0,38.0,22.0,22.0,,2,False,0.0,None,right,False,2,1,0,enc,0,0,0,[],[],1,6,4 1 1 1 4 4,4
39,1.911957899999834,39,39.0,39.0,39.0,39.0,39.0,23.0,23.0,,2,True,0.5,acc,right,False,2,1,6,ret,1,10,0,"['4', '4', '1', '1', '1', '4']","[116.78038070000002, 116.95633530000123, 117.4364727000011, 117.58842730000106, 118.4763092000012, 118.69233859999986]",1,6,# # # # # #,None
40,0.0,40,40.0,40.0,40.0,40.0,0.0,0.0,,,3,False,0.0,None,right,False,2,1,0,enc,0,0,1,[],[],2,6,3 2 2 3 2 3,6
41,1.3599598000000697,41,41.0,41.0,41.0,41.0,1.0,1.0,,,3,True,0.5,acc,right,False,2,1,6,ret,1,10,1,"['3', '2', '2', '3', '2', '3']","[5.020416999999725, 5.212349899999026, 5.39638659999946, 6.060408800000005, 6.228525799999261, 6.3803767999997945]",2,6,# # # # # #,None
42,0.0,42,42.0,42.0,42.0,42.0,2.0,2.0,,,2,False,0.0,None,right,False,2,1,0,enc,0,0,1,[],[],2,6,2 4 4 4 4 1,4
43,2.9678655999996413,43,43.0,43.0,43.0,43.0,3.0,3.0,,,2,True,0.5,acc,right,True,2,1,4,ret,1,4,1,"['2', '4', '4', '4', '1', '4']","[15.236461200000122, 15.524438499998723, 15.788534600000276, 15.95637220000026, 18.052401499999178, 18.204326799999762]",2,6,# # # # # #,None
44,0.0,44,44.0,44.0,44.0,44.0,4.0,4.0,,,3,False,0.0,None,right,False,2,1,0,enc,0,0,1,[],[],2,6,1 4 1 4 4 3,6
45,1.4878368000008777,45,45.0,45.0,45.0,45.0,5.0,5.0,,,3,True,0.5,acc,right,False,2,1,6,ret,1,10,1,"['1', '4', '1', '4', '4', '3']","[24.652577199998632, 25.04446309999912, 25.300458499999877, 25.79646689999936, 25.948519899999155, 26.14041399999951]",2,6,# # # # # #,None
46,0.0,46,46.0,46.0,46.0,46.0,6.0,6.0,,,3,False,0.0,None,right,False,2,1,0,enc,0,0,0,[],[],2,6,1 3 1 3 1 3,6
47,2.9359965000003285,47,47.0,47.0,47.0,47.0,7.0,7.0,,,3,True,0.5,acc,right,False,2,1,6,ret,1,10,0,"['3', '1', '3', '1', '3', '1']","[32.564474799999516, 32.74843529999998, 32.96431080000002, 35.012307499999224, 35.31639449999966, 35.500471299999845]",2,6,# # # # # #,None
48,0.0,48,48.0,48.0,48.0,48.0,8.0,8.0,,,2,False,0.0,None,right,False,2,1,0,enc,0,0,0,[],[],2,6,2 1 4 4 4 2,4
49,1.848045299999285,49,49.0,49.0,49.0,49.0,9.0,9.0,,,2,True,0.5,acc,right,True,2,1,4,ret,1,4,0,"['4', '2', '4', '4', '1', '2']","[44.54834599999958, 44.81222059999891, 45.76446939999914, 45.97236519999933, 46.308403400000316, 46.39639129999887]",2,6,# # # # # #,None
50,0.0,50,50.0,50.0,50.0,50.0,10.0,10.0,,,3,False,0.0,None,right,False,2,1,0,enc,0,0,0,[],[],2,6,3 3 4 1 2 3,6
51,2.5758158000007825,51,51.0,51.0,51.0,51.0,11.0,11.0,,,3,True,0.5,acc,right,True,2,1,4,ret,1,4,0,"['3', '2', '1', '3', '2', '3']","[53.76436949999879, 53.95653039999888, 54.1803134999991, 55.86837939999896, 56.16429020000032, 56.340185299999575]",2,6,# # # # # #,None
52,0.0,52,52.0,52.0,52.0,52.0,12.0,12.0,,,2,False,0.0,None,right,False,2,1,0,enc,0,0,0,[],[],2,6,4 2 2 2 3 1,4
53,1.8719799999998936,53,53.0,53.0,53.0,53.0,13.0,13.0,,,2,True,0.5,acc,right,True,2,1,1,ret,1,1,0,"['2', '4', '3', '2', '1', '1']","[66.4203121999999, 66.74832049999895, 67.3803355, 67.62022179999985, 68.12428419999924, 68.29229219999979]",2,6,# # # # # #,None
54,0.0,54,54.0,54.0,54.0,54.0,14.0,14.0,,,3,False,0.0,None,right,False,2,1,0,enc,0,0,1,[],[],2,6,3 2 2 1 1 4,6
55,0.9360926000008476,55,55.0,55.0,55.0,55.0,15.0,15.0,,,3,True,0.5,acc,right,False,2,1,6,ret,1,10,1,"['3', '2', '2', '1', '1', '4']","[74.89219859999866, 75.07633910000004, 75.25231910000002, 75.44436499999938, 75.63635109999996, 75.82829119999951]",2,6,# # # # # #,None
56,0.0,56,56.0,56.0,56.0,56.0,16.0,16.0,,,2,False,0.0,None,right,False,2,1,0,enc,0,0,0,[],[],2,6,4 3 2 1 2 2,4
57,2.944175599999653,57,57.0,57.0,57.0,57.0,17.0,17.0,,,2,True,0.5,acc,right,True,2,1,3,ret,1,3,0,"['3', '4', '1', '2', '4', '4']","[86.25215089999983, 86.55634909999935, 87.86828369999967, 88.10826209999868, 89.02027009999983, 89.19632649999949]",2,6,# # # # # #,None
58,0.0,58,58.0,58.0,58.0,58.0,18.0,18.0,,,2,False,0.0,None,right,False,2,1,0,enc,0,0,1,[],[],2,6,3 1 4 4 2 3,4
59,1.5519299999996292,59,59.0,59.0,59.0,59.0,19.0,19.0,,,2,True,0.5,acc,right,False,2,1,6,ret,1,10,1,"['3', '1', '4', '4', '2', '3']","[98.71630829999958, 99.02021090000017, 99.80435269999907, 99.97253959999944, 100.19647619999887, 100.26823829999921]",2,6,# # # # # #,None
60,0.0,60,60.0,60.0,60.0,60.0,20.0,20.0,,,3,False,0.0,None,right,False,2,1,0,enc,0,0,0,[],[],2,6,1 1 4 4 3 2,6
61,1.9678849000010807,61,61.0,61.0,61.0,61.0,21.0,21.0,,,3,True,0.5,acc,right,True,2,1,0,ret,1,0,0,"['4', '1', '1', '2', '3', '2']","[109.14823479999905, 109.59626609999941, 110.29228229999899, 110.78018469999915, 110.94822810000005, 111.11611970000013]",2,6,# # # # # #,None
62,0.0,62,62.0,62.0,62.0,62.0,22.0,22.0,,,2,False,0.0,None,right,False,2,1,0,enc,0,0,1,[],[],2,6,4 2 1 2 4 1,4
63,1.6959999000009702,63,63.0,63.0,63.0,63.0,23.0,23.0,,,2,True,0.5,acc,right,True,2,1,4,ret,1,4,1,"['4', '1', '2', '2', '4', '1']","[120.83617409999897, 121.1962311999996, 121.6602014, 121.90006149999863, 122.30827529999988, 122.53217399999994]",2,6,# # # # # #,None
64,0.0,64,64.0,64.0,64.0,0.0,0.0,,,,2,False,0.0,None,right,False,2,1,0,enc,0,0,1,[],[],3,6,1 3 3 1 2 3,4
65,1.1844514000003985,65,65.0,65.0,65.0,1.0,1.0,,,,2,True,0.5,acc,right,False,2,1,6,ret,1,10,1,"['1', '3', '3', '1', '2', '3']","[6.764803799998845, 7.092745799998738, 7.324709999998959, 7.572786299999279, 7.804755799999839, 7.949255199999243]",3,6,# # # # # #,None
66,0.0,66,66.0,66.0,66.0,2.0,2.0,,,,3,False,0.0,None,right,False,2,1,0,enc,0,0,0,[],[],3,6,2 3 1 2 2 1,6
67,2.536065199999939,67,67.0,67.0,67.0,3.0,3.0,,,,3,True,0.5,acc,right,True,2,1,4,ret,1,4,0,"['1', '2', '2', '1', '2', '3']","[14.868674299999839, 15.09282389999862, 15.268713499999649, 17.084712099998796, 17.228724099999454, 17.404739499999778]",3,6,# # # # # #,None
68,0.0,68,68.0,68.0,68.0,4.0,4.0,,,,3,False,0.0,None,right,False,2,1,0,enc,0,0,1,[],[],3,6,4 1 3 2 2 1,6
69,1.216046199999255,69,69.0,69.0,69.0,5.0,5.0,,,,3,True,0.5,acc,right,False,2,1,6,ret,1,10,1,"['4', '1', '3', '2', '2', '1']","[24.18069629999991, 24.49265479999849, 24.73258589999932, 24.97269619999861, 25.140821299999516, 25.396742499999164]",3,6,# # # # # #,None
70,0.0,70,70.0,70.0,70.0,6.0,6.0,,,,2,False,0.0,None,right,False,2,1,0,enc,0,0,0,[],[],3,6,3 4 4 3 4 1,4
71,2.4160639000001543,71,71.0,71.0,71.0,7.0,7.0,,,,2,True,0.5,acc,right,False,2,1,6,ret,1,10,0,"['1', '4', '3', '4', '4', '3']","[34.356710199999725, 34.70877589999873, 35.980801199999405, 36.26074919999883, 36.516722799999116, 36.77277409999988]",3,6,# # # # # #,None
72,0.0,72,72.0,72.0,72.0,8.0,8.0,,,,3,False,0.0,None,right,False,2,1,0,enc,0,0,1,[],[],3,6,1 2 2 4 4 3,6
73,2.336026099999799,73,73.0,73.0,73.0,9.0,9.0,,,,3,True,0.5,acc,right,True,2,1,5,ret,1,5,1,"['1', '2', '2', '4', '3', '3']","[43.22864219999974, 43.48473079999894, 43.67666119999922, 45.0766222000002, 45.404607899999974, 45.56466829999954]",3,6,# # # # # #,None
74,0.0,74,74.0,74.0,74.0,10.0,10.0,,,,2,False,0.0,None,right,False,2,1,0,enc,0,0,0,[],[],3,6,4 4 3 2 3 3,4
75,2.8243597000000578,75,75.0,75.0,75.0,11.0,11.0,,,,2,True,0.5,acc,right,False,2,1,6,ret,1,10,0,"['3', '3', '2', '3', '4', '4']","[54.348624799999016, 54.5566431999996, 56.35670039999968, 56.58876009999949, 57.02069619999929, 57.172984499999075]",3,6,# # # # # #,None
76,0.0,76,76.0,76.0,76.0,12.0,12.0,,,,3,False,0.0,None,right,False,2,1,0,enc,0,0,0,[],[],3,6,2 4 3 2 2 4,6
77,2.6880126999985805,77,77.0,77.0,77.0,13.0,13.0,,,,3,True,0.5,acc,right,True,2,1,3,ret,1,3,0,"['4', '2', '4', '4', '3', '2']","[64.46868480000012, 64.98060269999951, 65.26066929999979, 66.74854219999906, 66.9246991, 67.1566974999987]",3,6,# # # # # #,None
78,0.0,78,78.0,78.0,78.0,14.0,14.0,,,,2,False,0.0,None,right,False,2,1,0,enc,0,0,0,[],[],3,6,2 3 4 4 1 2,4
79,2.880090999999084,79,79.0,79.0,79.0,15.0,15.0,,,,2,True,0.5,acc,right,False,2,1,6,ret,1,10,0,"['2', '1', '4', '4', '3', '2']","[76.09250830000019, 76.36467409999932, 77.20452419999856, 77.48460139999952, 78.74872569999934, 78.97259929999927]",3,6,# # # # # #,None
80,0.0,80,80.0,80.0,80.0,16.0,16.0,,,,3,False,0.0,None,right,False,2,1,0,enc,0,0,1,[],[],3,6,2 1 1 2 4 1,6
81,1.2796531000003597,81,81.0,81.0,81.0,17.0,17.0,,,,3,True,0.5,acc,right,False,2,1,6,ret,1,10,1,"['2', '1', '1', '2', '4', '1']","[85.8449262999984, 86.1405450000002, 86.34066349999921, 86.62865779999993, 86.84478010000021, 87.12457939999877]",3,6,# # # # # #,None
82,0.0,82,82.0,82.0,82.0,18.0,18.0,,,,3,False,0.0,None,right,False,2,1,0,enc,0,0,0,[],[],3,6,3 2 1 1 3 2,6
83,1.7680032999996909,83,83.0,83.0,83.0,19.0,19.0,,,,3,True,0.5,acc,right,True,2,1,4,ret,1,4,0,"['3', '2', '1', '1', '2', '3']","[95.62859769999886, 95.83655729999919, 96.10863569999856, 96.99655459999849, 97.17263490000005, 97.39660099999855]",3,6,# # # # # #,None
84,0.0,84,84.0,84.0,84.0,20.0,20.0,,,,2,False,0.0,None,right,False,2,1,0,enc,0,0,1,[],[],3,6,1 4 1 4 2 1,4
85,1.4640404000001583,85,85.0,85.0,85.0,21.0,21.0,,,,2,True,0.5,acc,right,False,2,1,6,ret,1,10,1,"['1', '4', '1', '4', '2', '1']","[106.00455559999864, 106.33257129999947, 106.58854789999896, 106.82054280000011, 107.26052739999977, 107.4685959999988]",3,6,# # # # # #,None
86,0.0,86,86.0,86.0,86.0,22.0,22.0,,,,2,False,0.0,None,right,False,2,1,0,enc,0,0,1,[],[],3,6,1 3 2 1 1 3,4
87,1.112023699999554,87,87.0,87.0,87.0,23.0,23.0,,,,2,True,0.5,acc,right,False,2,1,6,ret,1,10,1,"['1', '3', '2', '1', '1', '3']","[115.95660580000003, 116.26038960000005, 116.48457090000011, 116.67658099999971, 116.88458749999882, 117.06862949999959]",3,6,# # # # # #,None
88,0.0,88,88.0,88.0,0.0,0.0,,,,,2,False,0.0,None,right,False,2,1,0,enc,0,0,1,[],[],4,6,4 4 1 3 2 2,4
89,0.9280438000005232,89,89.0,89.0,1.0,1.0,,,,,2,True,0.5,acc,right,False,2,1,6,ret,1,10,1,"['4', '4', '1', '3', '2', '2']","[7.164873499999885, 7.3248347000007925, 7.556791400000293, 7.725110600000335, 7.916807800000242, 8.092917300000408]",4,6,# # # # # #,None
90,0.0,90,90.0,90.0,2.0,2.0,,,,,2,False,0.0,None,right,False,2,1,0,enc,0,0,0,[],[],4,6,3 2 1 3 4 3,4
91,3.048989299999448,91,91.0,91.0,3.0,3.0,,,,,2,True,0.5,acc,right,True,2,1,4,ret,1,4,0,"['3', '1', '3', '4', '2', '3']","[16.69277780000084, 16.9967871000008, 18.389605700000175, 18.66086280000127, 19.5567415000005, 19.74176710000029]",4,6,# # # # # #,None
92,0.0,92,92.0,92.0,4.0,4.0,,,,,3,False,0.0,None,right,False,2,1,0,enc,0,0,0,[],[],4,6,2 3 2 3 1 2,6
93,2.7839951000005385,93,93.0,93.0,5.0,5.0,,,,,3,True,0.5,acc,right,True,2,1,2,ret,1,2,0,"['1', '2', '3', '3', '4', '2']","[29.116847999999663, 29.676767900000414, 29.96472040000117, 31.35678469999948, 31.6607982000005, 31.900843100000202]",4,6,# # # # # #,None
94,0.0,94,94.0,94.0,6.0,6.0,,,,,3,False,0.0,None,right,False,2,1,0,enc,0,0,1,[],[],4,6,4 4 4 2 2 1,6
95,1.2319024999997057,95,95.0,95.0,7.0,7.0,,,,,3,True,0.5,acc,right,False,2,1,6,ret,1,10,1,"['4', '4', '4', '2', '2', '1']","[38.3888605000011, 38.58083110000007, 38.74133030000121, 39.262059800001225, 39.4127497999998, 39.62076300000081]",4,6,# # # # # #,None
96,0.0,96,96.0,96.0,8.0,8.0,,,,,2,False,0.0,None,right,False,2,1,0,enc,0,0,1,[],[],4,6,3 1 4 3 4 1,4
97,1.8639172999992293,97,97.0,97.0,9.0,9.0,,,,,2,True,0.5,acc,right,True,2,1,5,ret,1,5,1,"['3', '1', '4', '3', '3', '1']","[48.396823200000654, 48.69282949999979, 49.23675999999978, 49.50076970000009, 50.03681300000062, 50.26074049999988]",4,6,# # # # # #,None
98,0.0,98,98.0,98.0,10.0,10.0,,,,,3,False,0.0,None,right,False,2,1,0,enc,0,0,1,[],[],4,6,3 1 4 2 4 3,6
99,3.631976799999393,99,99.0,99.0,11.0,11.0,,,,,3,True,0.5,acc,right,True,2,1,4,ret,1,4,1,"['3', '1', '4', '2', '3', '4']","[56.94071690000055, 57.19656229999964, 57.79664279999997, 60.1487003000002, 60.324745600000824, 60.572693699999945]",4,6,# # # # # #,None
100,0.0,100,100.0,100.0,12.0,12.0,,,,,2,False,0.0,None,right,False,2,1,0,enc,0,0,0,[],[],4,6,2 1 4 1 4 4,4
101,3.0718963999988773,101,101.0,101.0,13.0,13.0,,,,,2,True,0.5,acc,right,True,2,1,4,ret,1,4,0,"['4', '4', '1', '4', '2', '1']","[69.08479960000113, 69.26071559999946, 70.73269720000098, 70.95666870000059, 71.96480950000114, 72.15669600000001]",4,6,# # # # # #,None
102,0.0,102,102.0,102.0,14.0,14.0,,,,,3,False,0.0,None,right,False,2,1,0,enc,0,0,0,[],[],4,6,4 4 4 2 2 3,6
103,1.1359525999996551,103,103.0,103.0,15.0,15.0,,,,,3,True,0.5,acc,right,False,2,1,6,ret,1,10,0,"['3', '2', '2', '4', '4', '4']","[79.38875270000062, 79.6526759999997, 79.84479029999966, 80.11667239999952, 80.33267520000118, 80.52470530000028]",4,6,# # # # # #,None
104,0.0,104,104.0,104.0,16.0,16.0,,,,,2,False,0.0,None,right,False,2,1,0,enc,0,0,1,[],[],4,6,4 2 3 2 4 3,4
105,1.648027400000501,105,105.0,105.0,17.0,17.0,,,,,2,True,0.5,acc,right,False,2,1,6,ret,1,10,1,"['4', '2', '3', '2', '4', '3']","[89.34864519999974, 89.68475620000027, 90.22068209999998, 90.48474530000021, 90.7487686000004, 90.99667260000024]",4,6,# # # # # #,None
106,0.0,106,106.0,106.0,18.0,18.0,,,,,2,False,0.0,None,right,False,2,1,0,enc,0,0,0,[],[],4,6,4 4 2 3 3 4,4
107,4.143995999998879,107,107.0,107.0,19.0,19.0,,,,,2,True,0.5,acc,right,True,2,1,5,ret,1,5,0,"['4', '3', '4', '2', '4', '4']","[99.79675660000066, 100.05264990000069, 102.38061200000084, 102.64469240000108, 103.7566526999999, 103.94075259999954]",4,6,# # # # # #,None
108,0.0,108,108.0,108.0,20.0,20.0,,,,,3,False,0.0,None,right,False,2,1,0,enc,0,0,1,[],[],4,6,3 3 3 1 1 2,6
109,0.9200407999996968,109,109.0,109.0,21.0,21.0,,,,,3,True,0.5,acc,right,False,2,1,6,ret,1,10,1,"['3', '3', '3', '1', '1', '2']","[110.5485950000002, 110.7166599000011, 110.89322530000027, 111.10064469999998, 111.26868520000062, 111.4686357999999]",4,6,# # # # # #,None
110,0.0,110,110.0,110.0,22.0,22.0,,,,,3,False,0.0,None,right,False,2,1,0,enc,0,0,0,[],[],4,6,1 4 3 2 2 1,6
111,3.1598856000000524,111,111.0,111.0,23.0,23.0,,,,,3,True,0.5,acc,right,True,2,1,3,ret,1,3,0,"['1', '2', '2', '1', '3', '4']","[118.78875119999975, 119.22063440000056, 119.8206924999995, 121.40504630000032, 121.75658670000121, 121.9486367999998]",4,6,# # # # # #,None
112,0.0,112,112.0,0.0,0.0,,,,,,3,False,0.0,None,right,False,2,1,0,enc,0,0,1,[],[],5,6,4 3 1 1 1 1,6
113,1.2720192000015231,113,113.0,1.0,1.0,,,,,,3,True,0.5,acc,right,False,2,1,6,ret,1,10,1,"['4', '3', '1', '1', '1', '1']","[4.9355015000001, 5.271515200000067, 5.559669700000086, 5.871472500000891, 6.039587400000528, 6.2075207000016235]",5,6,# # # # # #,None
114,0.0,114,114.0,2.0,2.0,,,,,,3,False,0.0,None,right,False,2,1,0,enc,0,0,1,[],[],5,6,2 4 2 3 2 4,6
115,2.623917099999744,115,115.0,3.0,3.0,,,,,,3,True,0.5,acc,right,True,2,1,3,ret,1,3,1,"['2', '4', '2', '2', '4', '3']","[12.887462100001358, 13.23140560000138, 13.511472300000605, 14.823440000000119, 15.23145580000164, 15.511379200001102]",5,6,# # # # # #,None
116,0.0,116,116.0,4.0,4.0,,,,,,2,False,0.0,None,right,False,2,1,0,enc,0,0,1,[],[],5,6,4 3 3 2 2 2,4
117,1.888063099999272,117,117.0,5.0,5.0,,,,,,2,True,0.5,acc,right,True,2,1,4,ret,1,4,1,"['4', '3', '2', '3', '2', '2']","[24.295449300001565, 24.55986800000028, 25.47951970000031, 25.743410099999892, 26.007322400000703, 26.183512400000836]",5,6,# # # # # #,None
118,0.0,118,118.0,6.0,6.0,,,,,,2,False,0.0,None,right,False,2,1,0,enc,0,0,1,[],[],5,6,2 3 1 3 2 3,4
119,1.439711900000475,119,119.0,7.0,7.0,,,,,,2,True,0.5,acc,right,False,2,1,6,ret,1,10,1,"['2', '3', '1', '3', '2', '3']","[35.03972960000101, 35.359485900000436, 35.655476900001304, 35.951431700001194, 36.19935059999989, 36.479441500001485]",5,6,# # # # # #,None
120,0.0,120,120.0,8.0,8.0,,,,,,2,False,0.0,None,right,False,2,1,0,enc,0,0,0,[],[],5,6,3 2 3 1 3 4,4
121,3.1280538999999408,121,121.0,9.0,9.0,,,,,,2,True,0.5,acc,right,False,2,1,6,ret,1,10,0,"['4', '3', '1', '3', '2', '3']","[46.58338960000037, 46.87928210000064, 48.13549530000091, 48.36766610000086, 49.503353200001584, 49.711443500000314]",5,6,# # # # # #,None
122,0.0,122,122.0,10.0,10.0,,,,,,3,False,0.0,None,right,False,2,1,0,enc,0,0,0,[],[],5,6,1 3 1 4 1 1,6
123,2.4797273999993195,123,123.0,11.0,11.0,,,,,,3,True,0.5,acc,right,True,2,1,3,ret,1,3,0,"['1', '1', '4', '3', '2', '3']","[62.69552030000159, 63.52747260000069, 63.91942430000017, 64.75945700000011, 64.99160579999989, 65.17524770000091]",5,6,# # # # # #,None
124,0.0,124,124.0,12.0,12.0,,,,,,3,False,0.0,None,right,False,2,1,0,enc,0,0,0,[],[],5,6,3 3 4 4 1 1,6
125,2.6723772999994253,125,125.0,13.0,13.0,,,,,,3,True,0.5,acc,right,True,2,1,4,ret,1,4,0,"['1', '1', '4', '3', '4', '3']","[74.11136260000058, 75.1673479000001, 75.41536220000125, 76.35945350000111, 76.59940530000131, 76.7837399]",5,6,# # # # # #,None
126,0.0,126,126.0,14.0,14.0,,,,,,2,False,0.0,None,right,False,2,1,0,enc,0,0,0,[],[],5,6,1 4 1 2 4 4,4
127,4.0083911000001535,127,127.0,15.0,15.0,,,,,,2,True,0.5,acc,right,False,2,1,6,ret,1,10,0,"['4', '4', '2', '1', '4', '1']","[87.1752833999999, 87.53530040000078, 90.15131480000127, 90.40742600000158, 90.93529920000037, 91.18367450000005]",5,6,# # # # # #,None
128,0.0,128,128.0,16.0,16.0,,,,,,2,False,0.0,None,right,False,2,1,0,enc,0,0,1,[],[],5,6,1 2 2 1 4 2,4
129,1.20807479999894,129,129.0,17.0,17.0,,,,,,2,True,0.5,acc,right,False,2,1,6,ret,1,10,1,"['1', '2', '2', '1', '4', '2']","[99.90328780000164, 100.14336860000003, 100.41528840000137, 100.64747429999989, 100.89590190000126, 101.11136260000058]",5,6,# # # # # #,None
130,0.0,130,130.0,18.0,18.0,,,,,,3,False,0.0,None,right,False,2,1,0,enc,0,0,1,[],[],5,6,2 2 1 3 1 3,6
131,1.3439371999993457,131,131.0,19.0,19.0,,,,,,3,True,0.5,acc,right,True,2,1,5,ret,1,5,1,"['2', '2', '1', '3', '2', '3']","[107.99135560000104, 108.21532130000014, 108.43130530000053, 108.9512792000005, 109.15961340000104, 109.33529280000039]",5,6,# # # # # #,None
132,0.0,132,132.0,20.0,20.0,,,,,,2,False,0.0,None,right,False,2,1,0,enc,0,0,0,[],[],5,6,3 4 2 3 1 4,4
133,2.9598975999997483,133,133.0,21.0,21.0,,,,,,2,True,0.5,acc,right,True,2,1,2,ret,1,2,0,"['4', '1', '4', '1', '3', '2']","[118.45535680000103, 118.72737039999993, 120.56727090000095, 120.83934210000007, 121.20726150000155, 121.41525440000078]",5,6,# # # # # #,None
134,0.0,134,134.0,22.0,22.0,,,,,,3,False,0.0,None,right,False,2,1,0,enc,0,0,0,[],[],5,6,2 3 3 3 4 2,6
135,2.575891300000876,135,135.0,23.0,23.0,,,,,,3,True,0.5,acc,right,True,2,1,3,ret,1,3,0,"['2', '4', '3', '2', '2', '1']","[130.43137639999986, 131.7512413000004, 132.07125390000147, 132.63946600000054, 132.81524230000105, 133.00726770000074]",5,6,# # # # # #,None
136,0.0,136,0.0,0.0,,,,,,,2,False,0.0,None,right,False,2,1,0,enc,0,0,1,[],[],6,6,2 3 1 1 2 3,4
137,0.991910500000813,137,1.0,1.0,,,,,,,2,True,0.5,acc,right,False,2,1,6,ret,1,10,1,"['2', '3', '1', '1', '2', '3']","[7.79568719999952, 8.0276673999997, 8.259690200000477, 8.451706899999408, 8.68361460000051, 8.787597700000333]",6,6,# # # # # #,None
138,0.0,138,2.0,2.0,,,,,,,3,False,0.0,None,right,False,2,1,0,enc,0,0,1,[],[],6,6,2 3 3 4 2 2,6
139,1.1200516000008065,139,3.0,3.0,,,,,,,3,True,0.5,acc,right,False,2,1,6,ret,1,10,1,"['2', '3', '3', '4', '2', '2']","[15.363566199999696, 15.611464699999487, 15.7874838000007, 16.019654800000353, 16.243691699999545, 16.483617800000502]",6,6,# # # # # #,None
140,0.0,140,4.0,4.0,,,,,,,2,False,0.0,None,right,False,2,1,0,enc,0,0,0,[],[],6,6,3 1 2 4 4 4,4
141,2.768038100000922,141,5.0,5.0,,,,,,,2,True,0.5,acc,right,True,2,1,4,ret,1,4,0,"['4', '4', '4', '2', '3', '1']","[25.09157849999974, 25.267451400000937, 26.755622500000754, 26.971643900000345, 27.635525400000915, 27.859616600000663]",6,6,# # # # # #,None
142,0.0,142,6.0,6.0,,,,,,,3,False,0.0,None,right,False,2,1,0,enc,0,0,1,[],[],6,6,3 3 1 3 2 2,6
143,1.0639855999997962,143,7.0,7.0,,,,,,,3,True,0.5,acc,right,False,2,1,6,ret,1,10,1,"['3', '3', '1', '3', '2', '2']","[34.57165270000041, 34.723567099999855, 34.93158140000014, 35.2526629999993, 35.44363879999946, 35.63563830000021]",6,6,# # # # # #,None
144,0.0,144,8.0,8.0,,,,,,,2,False,0.0,None,right,False,2,1,0,enc,0,0,1,[],[],6,6,1 2 2 2 4 1,4
145,1.1359001999990141,145,9.0,9.0,,,,,,,2,True,0.5,acc,right,False,2,1,6,ret,1,10,1,"['1', '2', '2', '2', '4', '1']","[44.17168370000036, 44.42758119999962, 44.63542690000031, 44.83553849999953, 45.03558949999933, 45.30758389999937]",6,6,# # # # # #,None
146,0.0,146,10.0,10.0,,,,,,,3,False,0.0,None,right,False,2,1,0,enc,0,0,1,[],[],6,6,3 1 4 4 2 4,6
147,1.271839799999725,147,11.0,11.0,,,,,,,3,True,0.5,acc,right,False,2,1,6,ret,1,10,1,"['3', '1', '4', '4', '2', '4']","[51.94760330000099, 52.14757559999998, 52.34753169999931, 52.82755069999985, 53.0437036000003, 53.21944310000072]",6,6,# # # # # #,None
148,0.0,148,12.0,12.0,,,,,,,3,False,0.0,None,right,False,2,1,0,enc,0,0,0,[],[],6,6,3 4 1 3 4 2,6
149,3.7040851000001567,149,13.0,13.0,,,,,,,3,True,0.5,acc,right,True,2,1,3,ret,1,3,0,"['2', '4', '3', '2', '1', '2']","[61.97149560000071, 62.96355550000044, 63.41957920000095, 65.2994777999993, 65.50740580000092, 65.67558070000086]",6,6,# # # # # #,None
150,0.0,150,14.0,14.0,,,,,,,3,False,0.0,None,right,False,2,1,0,enc,0,0,0,[],[],6,6,1 2 1 3 1 1,6
151,3.7360112999995176,151,15.0,15.0,,,,,,,3,True,0.5,acc,right,True,2,1,4,ret,1,4,0,"['1', '1', '3', '1', '1', '2']","[73.20349850000093, 73.39552209999965, 73.59553819999928, 76.62761390000014, 76.81159339999977, 76.93950980000045]",6,6,# # # # # #,None
152,0.0,152,16.0,16.0,,,,,,,2,False,0.0,None,right,False,2,1,0,enc,0,0,1,[],[],6,6,2 1 4 3 3 2,4
153,1.5839598999991722,153,17.0,17.0,,,,,,,2,True,0.5,acc,right,True,2,1,5,ret,1,5,1,"['2', '1', '4', '3', '2', '2']","[85.5155493000002, 85.75536049999937, 86.291478000001, 86.53949979999925, 86.92347209999934, 87.09950919999937]",6,6,# # # # # #,None
154,0.0,154,18.0,18.0,,,,,,,2,False,0.0,None,right,False,2,1,0,enc,0,0,0,[],[],6,6,1 4 4 1 2 3,4
155,2.439214300000458,155,19.0,19.0,,,,,,,2,True,0.5,acc,right,True,2,1,4,ret,1,4,0,"['2', '3', '1', '4', '4', '1']","[96.42826830000013, 96.64345610000055, 98.24338689999968, 98.50896310000098, 98.65955940000094, 98.86748260000059]",6,6,# # # # # #,None
156,0.0,156,20.0,20.0,,,,,,,2,False,0.0,None,right,False,2,1,0,enc,0,0,0,[],[],6,6,2 1 2 3 4 4,4
157,2.6800020999999106,157,21.0,21.0,,,,,,,2,True,0.5,acc,right,True,2,1,5,ret,1,5,0,"['4', '4', '3', '4', '1', '2']","[107.4194822999998, 107.61944199999925, 109.25139689999924, 109.49150630000076, 109.89135300000089, 110.09948439999971]",6,6,# # # # # #,None
158,0.0,158,22.0,22.0,,,,,,,3,False,0.0,None,right,False,2,1,0,enc,0,0,0,[],[],6,6,3 1 3 4 2 3,6
159,2.640052499999001,159,23.0,23.0,,,,,,,3,True,0.5,acc,right,True,2,1,4,ret,1,4,0,"['3', '2', '4', '1', '2', '3']","[118.54744000000028, 118.9393971999998, 119.24354520000088, 120.81141960000059, 120.98059310000099, 121.18749249999928]",6,6,# # # # # #,None
160,0.0,0,0.0,,,,,,,,2,False,0.0,None,right,False,2,1,0,enc,0,0,1,[],[],7,6,2 4 4 2 1 3,4
161,1.5195853999994142,1,1.0,,,,,,,,2,True,0.5,acc,right,False,2,1,6,ret,1,10,1,"['2', '4', '4', '2', '1', '3']","[7.044123800000307, 7.371663800000533, 7.707894400000441, 8.003849200000332, 8.291770499999984, 8.563709199999721]",7,6,# # # # # #,None
162,0.0,2,2.0,,,,,,,,3,False,0.0,None,right,False,2,1,0,enc,0,0,1,[],[],7,6,2 4 3 1 4 4,6
163,1.4402119000005769,3,3.0,,,,,,,,3,True,0.5,acc,right,False,2,1,6,ret,1,10,1,"['2', '4', '3', '1', '4', '4']","[15.099730399999316, 15.467741200000091, 15.739873200000147, 16.01977910000096, 16.371783599999617, 16.539942299999893]",7,6,# # # # # #,None
164,0.0,4,4.0,,,,,,,,3,False,0.0,None,right,False,2,1,0,enc,0,0,1,[],[],7,6,3 3 4 4 4 1,6
165,2.8156211999994416,5,5.0,,,,,,,,3,True,0.5,acc,right,True,2,1,5,ret,1,5,1,"['3', '4', '4', '4', '4', '1']","[23.540030000000115, 23.811643500001082, 24.107832900001085, 24.44384050000008, 25.803745499999422, 26.355651199999556]",7,6,# # # # # #,None
166,0.0,6,6.0,,,,,,,,2,False,0.0,None,right,False,2,1,0,enc,0,0,1,[],[],7,6,4 1 2 3 3 2,4
167,2.3840448999999357,7,7.0,,,,,,,,2,True,0.5,acc,right,True,2,1,5,ret,1,5,1,"['4', '1', '2', '3', '4', '2']","[35.08375680000063, 35.435829100000774, 35.72373739999966, 35.971794999999474, 37.25972290000027, 37.467801700000564]",7,6,# # # # # #,None
168,0.0,8,8.0,,,,,,,,3,False,0.0,None,right,False,2,1,0,enc,0,0,0,[],[],7,6,3 4 2 1 2 2,6
169,2.7920090999996314,9,9.0,,,,,,,,3,True,0.5,acc,right,False,2,1,6,ret,1,10,0,"['2', '2', '1', '2', '4', '3']","[44.46780750000107, 44.68391789999987, 44.92368460000034, 46.80383559999973, 47.05979579999985, 47.259816600000704]",7,6,# # # # # #,None
170,0.0,10,10.0,,,,,,,,2,False,0.0,None,right,False,2,1,0,enc,0,0,0,[],[],7,6,4 4 3 4 3 3,4
171,2.9520962999995386,11,11.0,,,,,,,,2,True,0.5,acc,right,False,2,1,6,ret,1,10,0,"['3', '3', '4', '3', '4', '4']","[56.179694700000255, 56.41168599999946, 57.899629300000015, 58.12369209999997, 58.95578159999968, 59.131790999999794]",7,6,# # # # # #,None
172,0.0,12,12.0,,,,,,,,2,False,0.0,None,right,False,2,1,0,enc,0,0,0,[],[],7,6,4 1 4 1 4 2,4
173,3.896054900000309,13,13.0,,,,,,,,2,True,0.5,acc,right,False,2,1,6,ret,1,10,0,"['2', '4', '1', '4', '1', '4']","[68.0357340999999, 68.307758500001, 71.30777900000066, 71.49955279999995, 71.71576939999977, 71.93178900000021]",7,6,# # # # # #,None
174,0.0,14,14.0,,,,,,,,3,False,0.0,None,right,False,2,1,0,enc,0,0,1,[],[],7,6,2 1 4 3 1 2,6
175,1.2239946000008786,15,15.0,,,,,,,,3,True,0.5,acc,right,False,2,1,6,ret,1,10,1,"['2', '1', '4', '3', '1', '2']","[78.95571860000018, 79.17980530000023, 79.5077010999994, 79.73175310000079, 79.97967620000054, 80.17971320000106]",7,6,# # # # # #,None
176,0.0,16,16.0,,,,,,,,2,False,0.0,None,right,False,2,1,0,enc,0,0,0,[],[],7,6,4 4 4 2 4 2,4
177,2.5039438000003433,17,17.0,,,,,,,,2,True,0.5,acc,right,True,2,1,1,ret,1,1,0,"['2', '2', '4', '2', '2', '2']","[91.27568659999997, 91.9958788999993, 92.76363739999942, 93.05969759999971, 93.4120483000006, 93.77963040000031]",7,6,# # # # # #,None
178,0.0,18,18.0,,,,,,,,3,False,0.0,None,right,False,2,1,0,enc,0,0,0,[],[],7,6,3 1 4 4 2 4,6
179,3.991992600000231,19,19.0,,,,,,,,3,True,0.5,acc,right,True,2,1,3,ret,1,3,0,"['2', '4', '2', '4', '1', '3']","[102.65957669999989, 103.22760899999957, 103.5796448000001, 106.27549379999982, 106.49965119999979, 106.65156930000012]",7,6,# # # # # #,None
180,0.0,20,20.0,,,,,,,,3,False,0.0,None,right,False,2,1,0,enc,0,0,0,[],[],7,6,1 4 2 2 3 4,6
181,3.039949899999556,21,21.0,,,,,,,,3,True,0.5,acc,right,False,2,1,6,ret,1,10,0,"['4', '3', '2', '2', '4', '1']","[114.28364710000096, 115.05154630000106, 115.28368790000059, 116.94760950000091, 117.17255380000097, 117.32359700000052]",7,6,# # # # # #,None
182,0.0,22,22.0,,,,,,,,2,False,0.0,None,right,False,2,1,0,enc,0,0,1,[],[],7,6,1 1 2 1 1 3,4
183,1.007993200000783,23,23.0,,,,,,,,2,True,0.5,acc,right,False,2,1,6,ret,1,10,1,"['1', '1', '2', '1', '1', '3']","[125.67568329999995, 125.8676873000004, 126.08368289999999, 126.27559219999966, 126.49966119999954, 126.68367650000073]",7,6,# # # # # #,None
0,0.0,0,,,,,,,,,2,False,0.0,None,right,False,2,1,0,enc,0,0,1,[],[],8,6,4 2 3 2 2 2,4
1,1.3119315999992978,1,,,,,,,,,2,True,0.5,acc,right,False,2,1,6,ret,1,10,1,"['4', '2', '3', '2', '2', '2']","[7.346269899999243, 7.6583449999998265, 7.946157200000016, 8.194196399999782, 8.458141699999032, 8.65820149999854]",8,6,# # # # # #,None
2,0.0,2,,,,,,,,,2,False,0.0,None,right,False,2,1,0,enc,0,0,1,[],[],8,6,1 1 1 3 1 4,4
3,1.2000267000003078,3,,,,,,,,,2,True,0.5,acc,right,False,2,1,6,ret,1,10,1,"['1', '1', '1', '3', '1', '4']","[17.09009479999986, 17.36213719999978, 17.602106899999853, 17.85816519999935, 18.074241799999072, 18.29012150000017]",8,6,# # # # # #,None
4,0.0,4,,,,,,,,,2,False,0.0,None,right,False,2,1,0,enc,0,0,0,[],[],8,6,2 1 2 1 3 4,4
5,2.199913499998729,5,,,,,,,,,2,True,0.5,acc,right,False,2,1,6,ret,1,10,0,"['4', '3', '1', '2', '1', '2']","[27.330085999999937, 27.57007749999866, 28.91438670000025, 29.113999399998647, 29.338079899998775, 29.529999499998667]",8,6,# # # # # #,None
6,0.0,6,,,,,,,,,2,False,0.0,None,right,False,2,1,0,enc,0,0,1,[],[],8,6,1 3 1 4 2 3,4
7,1.2480634000003192,7,,,,,,,,,2,True,0.5,acc,right,False,2,1,6,ret,1,10,1,"['1', '3', '1', '4', '2', '3']","[38.050117099999625, 38.2820415999995, 38.53831809999974, 38.77016579999872, 39.0980600999992, 39.298180499999944]",8,6,# # # # # #,None
8,0.0,8,,,,,,,,,3,False,0.0,None,right,False,2,1,0,enc,0,0,1,[],[],8,6,1 4 3 3 2 2,6
9,2.0718718000007357,9,,,,,,,,,3,True,0.5,acc,right,False,2,1,6,ret,1,10,1,"['1', '4', '3', '3', '2', '2']","[45.82605879999937, 46.47404469999856, 46.76220589999866, 47.50605889999861, 47.72212539999964, 47.89793060000011]",8,6,# # # # # #,None
10,0.0,10,,,,,,,,,2,False,0.0,None,right,False,2,1,0,enc,0,0,0,[],[],8,6,4 3 3 4 4 1,4
11,3.6320711999997,11,,,,,,,,,2,True,0.5,acc,right,True,2,1,5,ret,1,5,0,"['1', '3', '4', '3', '3', '4']","[56.70603949999895, 56.9299790999994, 59.26605120000022, 59.97813059999862, 60.15411940000013, 60.33811069999865]",8,6,# # # # # #,None
12,0.0,12,,,,,,,,,2,False,0.0,None,right,False,2,1,0,enc,0,0,0,[],[],8,6,3 1 3 2 4 2,4
13,3.631774499999665,13,,,,,,,,,2,True,0.5,acc,right,False,2,1,6,ret,1,10,0,"['2', '4', '2', '3', '1', '3']","[69.48215279999931, 69.73801119999916, 71.95407039999918, 72.21803569999975, 72.92999009999949, 73.11392729999898]",8,6,# # # # # #,None
14,0.0,14,,,,,,,,,3,False,0.0,None,right,False,2,1,0,enc,0,0,1,[],[],8,6,1 3 2 3 3 3,6
15,0.9760183000016696,15,,,,,,,,,3,True,0.5,acc,right,False,2,1,6,ret,1,10,1,"['1', '3', '2', '3', '3', '3']","[79.68200329999854, 79.89001029999963, 80.09808559999874, 80.31401310000001, 80.49001099999987, 80.65802160000021]",8,6,# # # # # #,None
16,0.0,16,,,,,,,,,3,False,0.0,None,right,False,2,1,0,enc,0,0,1,[],[],8,6,4 2 4 4 2 4,6
17,1.7200417000003654,17,,,,,,,,,3,True,0.5,acc,right,True,2,1,3,ret,1,3,1,"['4', '2', '4', '2', '4', '2']","[87.2259815999987, 87.45788859999993, 87.65797620000012, 87.87410459999955, 88.15407379999851, 88.94602329999907]",8,6,# # # # # #,None
18,0.0,18,,,,,,,,,3,False,0.0,None,right,False,2,1,0,enc,0,0,0,[],[],8,6,1 2 2 3 1 1,6
19,1.888354700000491,19,,,,,,,,,3,True,0.5,acc,right,True,2,1,5,ret,1,5,0,"['1', '1', '3', '2', '2', '4']","[96.93792769999891, 97.12994739999885, 97.33800849999898, 98.45792479999909, 98.62623009999879, 98.8262823999994]",8,6,# # # # # #,None
20,0.0,20,,,,,,,,,3,False,0.0,None,right,False,2,1,0,enc,0,0,0,[],[],8,6,2 3 1 1 3 4,6
21,1.8239830999991682,21,,,,,,,,,3,True,0.5,acc,right,False,2,1,6,ret,1,10,0,"['4', '3', '1', '1', '3', '2']","[106.71398090000002, 106.9699899999996, 107.17894979999983, 108.05804639999951, 108.3140330999995, 108.53796399999919]",8,6,# # # # # #,None
22,0.0,22,,,,,,,,,3,False,0.0,None,right,False,2,1,0,enc,0,0,0,[],[],8,6,4 3 2 2 1 3,6
23,2.0160821999998007,23,,,,,,,,,3,True,0.5,acc,right,False,2,1,6,ret,1,10,0,"['3', '1', '2', '2', '3', '4']","[119.10595169999942, 119.34592419999899, 119.54603959999986, 120.77792450000015, 120.96180529999947, 121.12203389999922]",8,6,# # # # # #,None
