,Tn,MT,chunk,display_trial_feedback,feedback_dur,feedback_type,hand,is_error,item_dur,iti_dur,number_correct,phase,phase_type,points,recall_dir,response,response_time,run_number,seq_length,seq_str,trial_dur,P1,P2,P3,P4,P5,P6,IPI_0,IPI_1,IPI_2,IPI_3,IPI_4,IPI_5
0,0,0.0,3,False,0.0,None,right,False,2,1,0,enc,0,0,1,[],[],1,6,2 2 2 4 4 3,6,0.0,0.0,0.0,0.0,0.0,0.0,0,0.0,0.0,0.0,0.0,0.0
1,1,3.107598600006895,3,True,0.5,acc,right,True,2,1,5,ret,1,5,1,"['2', '2', '2', '4', '3', '3']","[5.326723599981051, 5.527473199996166, 5.718571999983396, 6.8034329999936745, 8.19836330000544, 8.434322199987946]",1,6,# # # # # #,None,5.326723599981051,5.527473199996166,5.718571999983396,6.8034329999936745,8.19836330000544,8.434322199987946,-1.173276400018949,0.200749600015115,0.19109879998723045,1.084861000010278,1.3949303000117652,0.2359588999825064
2,2,0.0,3,False,0.0,None,right,False,2,1,0,enc,0,0,1,[],[],1,6,1 3 1 3 1 2,6,0.0,0.0,0.0,0.0,0.0,0.0,0,0.0,0.0,0.0,0.0,0.0
3,3,2.8810684000200126,3,True,0.5,acc,right,False,2,1,6,ret,1,10,1,"['1', '3', '1', '3', '1', '2']","[14.695413299981738, 14.88857929999358, 15.178337899997132, 17.05024969999795, 17.37127010000404, 17.57648170000175]",1,6,# # # # # #,None,14.695413299981738,14.88857929999358,15.178337899997132,17.05024969999795,17.37127010000404,17.57648170000175,-0.23890890000620857,0.1931660000118427,0.2897586000035517,1.8719118000008166,0.3210204000060912,0.20521159999771044
4,4,0.0,3,False,0.0,None,right,False,2,1,0,enc,0,0,0,[],[],1,6,4 1 4 3 4 3,6,0.0,0.0,0.0,0.0,0.0,0.0,0,0.0,0.0,0.0,0.0,0.0
5,5,5.871053100010612,3,True,0.5,acc,right,True,2,1,4,ret,1,4,0,"['4', '1', '3', '4', '1', '4']","[23.592342299991287, 23.881247999990592, 27.963450599985663, 28.733494299987797, 29.22457759999088, 29.4633954000019]",1,6,# # # # # #,None,23.592342299991287,23.881247999990592,27.963450599985663,28.733494299987797,29.22457759999088,29.4633954000019,-0.48413940001046285,0.2889056999993045,4.082202599995071,0.7700437000021338,0.4910833000030834,0.23881780001102015
6,6,0.0,2,False,0.0,None,right,False,2,1,0,enc,0,0,1,[],[],1,6,4 3 4 1 4 4,4,0.0,0.0,0.0,0.0,0.0,0.0,0,0.0,0.0,0.0,0.0,0.0
7,7,4.174102299992228,2,True,0.5,acc,right,True,2,1,4,ret,1,4,1,"['4', '1', '4', '3', '4', '4']","[38.19033209999907, 38.58730079999077, 38.92330910000601, 39.57339800000773, 42.20646009998745, 42.364434399991296]",1,6,# # # # # #,None,38.19033209999907,38.58730079999077,38.92330910000601,39.57339800000773,42.20646009998745,42.364434399991296,2.226936699997168,0.39696869999170303,0.3360083000152372,0.6500889000017196,2.6330620999797247,0.15797430000384338
8,8,0.0,2,False,0.0,None,right,False,2,1,0,enc,0,0,0,[],[],1,6,4 1 3 3 1 4,4,0.0,0.0,0.0,0.0,0.0,0.0,0,0.0,0.0,0.0,0.0,0.0
9,9,6.455606099974832,2,True,0.5,acc,right,True,2,1,3,ret,1,3,0,"['4', '3', '3', '3', '4', '1']","[51.54635260000941, 52.04824760000338, 54.28128110000398, 54.67844530000002, 57.64645139998174, 58.00195869998424]",1,6,# # # # # #,None,51.54635260000941,52.04824760000338,54.28128110000398,54.67844530000002,57.64645139998174,58.00195869998424,2.681918200018117,0.501894999993965,2.2330335000006016,0.39716419999604113,2.9680060999817215,0.3555073000025004
10,10,0.0,2,False,0.0,None,right,False,2,1,0,enc,0,0,0,[],[],1,6,1 3 4 2 2 2,4,0.0,0.0,0.0,0.0,0.0,0.0,0,0.0,0.0,0.0,0.0,0.0
11,11,5.973088700004157,2,True,0.5,acc,right,True,2,1,2,ret,1,2,0,"['2', '2', '3', '1', '2', '2']","[69.321208999987, 69.95834889999242, 74.21730509999907, 74.6971773999976, 75.11547520000022, 75.29429769999115]",1,6,# # # # # #,None,69.321208999987,69.95834889999242,74.21730509999907,74.6971773999976,75.11547520000022,75.29429769999115,4.81925030000275,0.6371399000054225,4.258956200006651,0.479872299998533,0.4182978000026196,0.17882249999092892
12,12,0.0,3,False,0.0,None,right,False,2,1,0,enc,0,0,0,[],[],1,6,4 1 1 1 4 3,6,0.0,0.0,0.0,0.0,0.0,0.0,0,0.0,0.0,0.0,0.0,0.0
13,13,10.798052500002086,3,True,0.5,acc,right,True,2,1,3,ret,1,3,0,"['4', '3', '3', '1', '1', '4']","[83.31422989998828, 87.70727769998484, 92.01133509998908, 92.54934769999818, 93.27620100000058, 94.11228239999036]",1,6,# # # # # #,None,83.31422989998828,87.70727769998484,92.01133509998908,92.54934769999818,93.27620100000058,94.11228239999036,1.519932199997129,4.393047799996566,4.30405740000424,0.5380126000090968,0.7268533000024036,0.83608139998978
14,14,0.0,2,False,0.0,None,right,False,2,1,0,enc,0,0,1,[],[],1,6,1 2 3 4 3 1,4,0.0,0.0,0.0,0.0,0.0,0.0,0,0.0,0.0,0.0,0.0,0.0
15,15,4.121024699998088,2,True,0.5,acc,right,True,2,1,3,ret,1,3,1,"['1', '2', '4', '3', '4', '1']","[102.9303338000027, 103.27620419999585, 103.83907709998311, 105.93260589998681, 106.71623769999132, 107.05135850000079]",1,6,# # # # # #,None,102.9303338000027,103.27620419999585,103.83907709998311,105.93260589998681,106.71623769999132,107.05135850000079,2.3180514000123367,0.34587039999314584,0.5628728999872692,2.0935288000036962,0.7836318000045139,0.335120800009463
16,0,0.0,3,False,0.0,None,right,False,2,1,0,enc,0,0,1,[],[],1,6,4 2 2 1 1 2,6,0.0,0.0,0.0,0.0,0.0,0.0,0,0.0,0.0,0.0,0.0,0.0
17,1,1.5942469000001438,3,True,0.5,acc,right,False,2,1,6,ret,1,10,1,"['4', '2', '2', '1', '1', '2']","[4.888180700014345, 5.283157200028654, 5.479282800020883, 5.886196400009794, 6.036297300015576, 6.482427600014489]",1,6,# # # # # #,None,4.888180700014345,5.283157200028654,5.479282800020883,5.886196400009794,6.036297300015576,6.482427600014489,NaN,0.39497650001430884,0.19612559999222867,0.4069135999889113,0.15010090000578202,0.44613029999891296
18,2,0.0,3,False,0.0,None,right,False,2,1,0,enc,0,0,1,[],[],1,6,3 3 2 2 3 3,6,0.0,0.0,0.0,0.0,0.0,0.0,0,0.0,0.0,0.0,0.0,0.0
19,3,1.3472343000175897,3,True,0.5,acc,right,False,2,1,6,ret,1,10,1,"['3', '3', '2', '2', '3', '3']","[13.20622180000646, 13.427241299999878, 13.784146900026826, 14.121088600018993, 14.37016340001719, 14.55345610002405]",1,6,# # # # # #,None,13.20622180000646,13.427241299999878,13.784146900026826,14.121088600018993,14.37016340001719,14.55345610002405,0.22379419999197125,0.2210194999934174,0.3569056000269484,0.33694169999216683,0.2490747999981977,0.18329270000685938
20,4,0.0,2,False,0.0,None,right,False,2,1,0,enc,0,0,0,[],[],1,6,1 4 4 2 2 1,4,0.0,0.0,0.0,0.0,0.0,0.0,0,0.0,0.0,0.0,0.0,0.0
21,5,6.7508698999881736,2,True,0.5,acc,right,True,2,1,5,ret,1,5,0,"['1', '2', '2', '2', '4', '1']","[23.325326500023948, 23.75212420002208, 24.860828300006688, 25.051921500009485, 29.744161500013433, 30.076196400012122]",1,6,# # # # # #,None,23.325326500023948,23.75212420002208,24.860828300006688,25.051921500009485,29.744161500013433,30.076196400012122,2.271870399999898,0.4267976999981329,1.1087040999846067,0.19109320000279695,4.692240000003949,0.33203489999868907
22,6,0.0,3,False,0.0,None,right,False,2,1,0,enc,0,0,0,[],[],1,6,2 3 3 2 4 1,6,0.0,0.0,0.0,0.0,0.0,0.0,0,0.0,0.0,0.0,0.0,0.0
23,7,3.5339538000116586,3,True,0.5,acc,right,False,2,1,6,ret,1,10,0,"['1', '4', '2', '3', '3', '2']","[38.621279300015885, 39.685183000023244, 40.089132400025846, 41.53634420002345, 41.73727620000136, 42.155233100027544]",1,6,# # # # # #,None,38.621279300015885,39.685183000023244,40.089132400025846,41.53634420002345,41.73727620000136,42.155233100027544,2.045082900003763,1.0639037000073586,0.4039494000026025,1.4472117999976035,0.2009319999779109,0.4179569000261836
24,8,0.0,2,False,0.0,None,right,False,2,1,0,enc,0,0,0,[],[],1,6,4 3 2 1 3 4,4,0.0,0.0,0.0,0.0,0.0,0.0,0,0.0,0.0,0.0,0.0,0.0
25,9,4.624981300003128,2,True,0.5,acc,right,True,2,1,3,ret,1,3,0,"['4', '3', '3', '2', '1', '2']","[51.918227700021816, 52.258249400008935, 54.46722010002122, 54.73520520000602, 56.18318150000414, 56.543209000024945]",1,6,# # # # # #,None,51.918227700021816,52.258249400008935,54.46722010002122,54.73520520000602,56.18318150000414,56.543209000024945,3.262994599994272,0.34002169998711906,2.208970700012287,0.2679850999847986,1.4479762999981176,0.36002750002080575
26,10,0.0,2,False,0.0,None,right,False,2,1,0,enc,0,0,1,[],[],1,6,4 3 3 1 1 2,4,0.0,0.0,0.0,0.0,0.0,0.0,0,0.0,0.0,0.0,0.0,0.0
27,11,1.8695907999936023,2,True,0.5,acc,right,False,2,1,6,ret,1,10,1,"['4', '3', '3', '1', '1', '2']","[65.70722200002638, 66.10115170001518, 66.71518150001066, 66.97425610001665, 67.38708430001861, 67.57681280001998]",1,6,# # # # # #,None,65.70722200002638,66.10115170001518,66.71518150001066,66.97425610001665,67.38708430001861,67.57681280001998,2.6640130000014324,0.3939296999888029,0.6140297999954782,0.25907460000598803,0.41282820000196807,0.18972850000136532
28,12,0.0,3,False,0.0,None,right,False,2,1,0,enc,0,0,0,[],[],1,6,2 3 4 2 2 1,6,0.0,0.0,0.0,0.0,0.0,0.0,0,0.0,0.0,0.0,0.0,0.0
29,13,2.4986773999989964,3,True,0.5,acc,right,False,2,1,6,ret,1,10,0,"['1', '2', '2', '4', '3', '2']","[78.07517730002292, 78.3851263000106, 78.55211490002694, 80.10526960002608, 80.4012465000269, 80.57385470002191]",1,6,# # # # # #,None,78.07517730002292,78.3851263000106,78.55211490002694,80.10526960002608,80.4012465000269,80.57385470002191,3.9983645000029355,0.3099489999876823,0.16698860001633875,1.5531546999991406,0.29597690000082366,0.1726081999950111
30,14,0.0,2,False,0.0,None,right,False,2,1,0,enc,0,0,1,[],[],1,6,4 2 3 4 2 1,4,0.0,0.0,0.0,0.0,0.0,0.0,0,0.0,0.0,0.0,0.0,0.0
31,15,2.21116009997786,2,True,0.5,acc,right,False,2,1,6,ret,1,10,1,"['4', '2', '3', '4', '2', '1']","[89.58812340002623, 89.99409360002028, 90.4161442000186, 91.02422380002099, 91.7169772000052, 91.7992835000041]",1,6,# # # # # #,None,89.58812340002623,89.99409360002028,90.4161442000186,91.02422380002099,91.7169772000052,91.7992835000041,2.5142687000043225,0.4059701999940444,0.42205059999832883,0.6080796000023838,0.6927533999842126,0.08230629999889061
32,16,0.0,2,False,0.0,None,right,False,2,1,0,enc,0,0,1,[],[],1,6,1 4 1 3 2 4,4,0.0,0.0,0.0,0.0,0.0,0.0,0,0.0,0.0,0.0,0.0,0.0
33,17,2.3941287999914493,2,True,0.5,acc,right,False,2,1,6,ret,1,10,1,"['1', '4', '1', '3', '2', '4']","[100.48125560002518, 101.13112800000818, 101.83037760001025, 102.19025010001496, 102.58905350000714, 102.87538440001663]",1,6,# # # # # #,None,100.48125560002518,101.13112800000818,101.83037760001025,102.19025010001496,102.58905350000714,102.87538440001663,2.1819721000210848,0.6498723999829963,0.6992496000020765,0.3598725000047125,0.3988033999921754,0.2863309000094887
34,18,0.0,3,False,0.0,None,right,False,2,1,0,enc,0,0,0,[],[],1,6,2 3 3 3 3 4,6,0.0,0.0,0.0,0.0,0.0,0.0,0,0.0,0.0,0.0,0.0,0.0
35,19,8.13279460000922,3,True,0.5,acc,right,True,2,1,5,ret,1,5,0,"['2', '3', '3', '3', '3', '2']","[108.8295022000093, 114.5981768000056, 114.98525510000763, 116.47433610001463, 116.73608580001746, 116.96229680001852]",1,6,# # # # # #,None,108.8295022000093,114.5981768000056,114.98525510000763,116.47433610001463,116.73608580001746,116.96229680001852,-0.5458822000073269,5.768674599996302,0.38707830000203103,1.4890810000069905,0.2617497000028379,0.22621100000105798
36,20,0.0,3,False,0.0,None,right,False,2,1,0,enc,0,0,1,[],[],1,6,1 1 3 2 2 4,6,0.0,0.0,0.0,0.0,0.0,0.0,0,0.0,0.0,0.0,0.0,0.0
37,21,1.067236699978821,3,True,0.5,acc,right,False,2,1,6,ret,1,10,1,"['1', '1', '3', '2', '2', '4']","[123.41698620002717, 123.59409190001315, 123.82011730002705, 124.05906020000111, 124.22120650002034, 124.48422290000599]",1,6,# # # # # #,None,123.41698620002717,123.59409190001315,123.82011730002705,124.05906020000111,124.22120650002034,124.48422290000599,-0.04531059999135323,0.17710569998598658,0.2260254000138957,0.23894289997406304,0.1621463000192307,0.26301639998564497
38,22,0.0,2,False,0.0,None,right,False,2,1,0,enc,0,0,0,[],[],1,6,4 1 1 1 4 4,4,0.0,0.0,0.0,0.0,0.0,0.0,0,0.0,0.0,0.0,0.0,0.0
39,23,4.9092398999782745,2,True,0.5,acc,right,False,2,1,6,ret,1,10,0,"['4', '4', '1', '1', '1', '4']","[133.7290041000233, 133.96131510002306, 135.30129450000823, 135.66786120002507, 138.3164668000245, 138.63824400000158]",1,6,# # # # # #,None,133.7290041000233,133.96131510002306,135.30129450000823,135.66786120002507,138.3164668000245,138.63824400000158,2.7447812000173144,0.23231099999975413,1.3399793999851681,0.3665667000168469,2.648605599999428,0.32177719997707754
40,0,0.0,3,False,0.0,None,right,False,2,1,0,enc,0,0,1,[],[],2,6,3 2 2 3 2 3,6,0.0,0.0,0.0,0.0,0.0,0.0,0,0.0,0.0,0.0,0.0,0.0
41,1,1.1928645999869332,3,True,0.5,acc,right,False,2,1,6,ret,1,10,1,"['3', '2', '2', '3', '2', '3']","[5.025924600020517, 5.313914300000761, 5.489897700026631, 5.687977400026284, 5.8768581000040285, 6.21878920000745]",2,6,# # # # # #,None,5.025924600020517,5.313914300000761,5.489897700026631,5.687977400026284,5.8768581000040285,6.21878920000745,NaN,0.28798969998024404,0.17598340002587065,0.1980796999996528,0.18888069997774437,0.3419311000034213
42,2,0.0,2,False,0.0,None,right,False,2,1,0,enc,0,0,1,[],[],2,6,2 4 4 4 4 1,4,0.0,0.0,0.0,0.0,0.0,0.0,0,0.0,0.0,0.0,0.0,0.0
43,3,4.287935900036247,2,True,0.5,acc,right,True,2,1,5,ret,1,5,1,"['2', '4', '4', '4', '4', '2']","[14.6409364999854, 14.976837099995464, 15.195978300005663, 18.100018099998124, 18.663841900008265, 18.928872400021646]",2,6,# # # # # #,None,14.6409364999854,14.976837099995464,15.195978300005663,18.100018099998124,18.663841900008265,18.928872400021646,1.9221472999779508,0.3359006000100635,0.2191412000101991,2.9040397999924608,0.563823800010141,0.26503050001338124
44,4,0.0,3,False,0.0,None,right,False,2,1,0,enc,0,0,1,[],[],2,6,1 4 1 4 4 3,6,0.0,0.0,0.0,0.0,0.0,0.0,0,0.0,0.0,0.0,0.0,0.0
45,5,1.4160848000319677,3,True,0.5,acc,right,False,2,1,6,ret,1,10,1,"['1', '4', '1', '4', '4', '3']","[25.062940899981186, 25.315907799988054, 25.573914900014643, 25.909801699977834, 26.135893900005613, 26.479025700013153]",2,6,# # # # # #,None,25.062940899981186,25.315907799988054,25.573914900014643,25.909801699977834,26.135893900005613,26.479025700013153,-0.3659315000404604,0.25296690000686795,0.2580071000265889,0.33588679996319115,0.22609220002777874,0.34313180000754073
46,6,0.0,3,False,0.0,None,right,False,2,1,0,enc,0,0,0,[],[],2,6,1 3 1 3 1 3,6,0.0,0.0,0.0,0.0,0.0,0.0,0,0.0,0.0,0.0,0.0,0.0
47,7,3.3919289999757893,3,True,0.5,acc,right,False,2,1,6,ret,1,10,0,"['3', '1', '3', '1', '3', '1']","[33.64886710001156, 34.101082400011364, 34.56288899999345, 36.563884800008964, 36.78779199998826, 37.04079609998735]",2,6,# # # # # #,None,33.64886710001156,34.101082400011364,34.56288899999345,36.563884800008964,36.78779199998826,37.04079609998735,0.6698413999984041,0.45221529999980703,0.46180659998208284,2.0009958000155166,0.2239071999792941,0.2530040999990888
48,8,0.0,2,False,0.0,None,right,False,2,1,0,enc,0,0,0,[],[],2,6,2 1 4 4 4 2,4,0.0,0.0,0.0,0.0,0.0,0.0,0,0.0,0.0,0.0,0.0,0.0
49,9,6.037904999975583,2,True,0.5,acc,right,False,2,1,6,ret,1,10,0,"['2', '4', '4', '4', '1', '2']","[51.84794750000583, 52.22786330000963, 55.027840700000525, 55.281890899990685, 57.49784810002893, 57.88585249998141]",2,6,# # # # # #,None,51.84794750000583,52.22786330000963,55.027840700000525,55.281890899990685,57.49784810002893,57.88585249998141,8.307151400018483,0.37991580000380054,2.799977399990894,0.25405019999016076,2.215957200038247,0.3880043999524787
50,10,0.0,3,False,0.0,None,right,False,2,1,0,enc,0,0,0,[],[],2,6,3 3 4 1 2 3,6,0.0,0.0,0.0,0.0,0.0,0.0,0,0.0,0.0,0.0,0.0,0.0
51,11,10.022049299965149,3,True,0.5,acc,right,True,2,1,5,ret,1,5,0,"['3', '2', '1', '4', '4', '3']","[65.00385640002787, 68.92784349998692, 69.23604899999918, 71.52192179998383, 71.86182729998836, 75.02590569999302]",2,6,# # # # # #,None,65.00385640002787,68.92784349998692,69.23604899999918,71.52192179998383,71.86182729998836,75.02590569999302,0.6180039000464603,3.9239870999590494,0.30820550001226366,2.285872799984645,0.3399055000045337,3.164078400004655
52,12,0.0,2,False,0.0,None,right,False,2,1,0,enc,0,0,0,[],[],2,6,4 2 2 2 3 1,4,0.0,0.0,0.0,0.0,0.0,0.0,0,0.0,0.0,0.0,0.0,0.0
53,13,5.387872699997388,2,True,0.5,acc,right,False,2,1,6,ret,1,10,0,"['1', '3', '2', '2', '2', '4']","[86.99584869999671, 87.43177129997639, 88.77775030001067, 89.0457304000156, 91.8458242000197, 92.3837213999941]",2,6,# # # # # #,None,86.99584869999671,87.43177129997639,88.77775030001067,89.0457304000156,91.8458242000197,92.3837213999941,5.4699430000036955,0.4359225999796763,1.3459790000342764,0.2679801000049338,2.800093800004106,0.5378971999743953
54,14,0.0,3,False,0.0,None,right,False,2,1,0,enc,0,0,1,[],[],2,6,3 2 2 1 1 4,6,0.0,0.0,0.0,0.0,0.0,0.0,0,0.0,0.0,0.0,0.0,0.0
55,15,1.2700403000344522,3,True,0.5,acc,right,False,2,1,6,ret,1,10,1,"['3', '2', '2', '1', '1', '4']","[98.89782319997903, 99.27295800001593, 99.45383840001887, 99.81081230001291, 99.97579430002952, 100.16786350001348]",2,6,# # # # # #,None,98.89782319997903,99.27295800001593,99.45383840001887,99.81081230001291,99.97579430002952,100.16786350001348,0.01410179998492822,0.37513480003690347,0.18088040000293404,0.3569738999940455,0.16498200001660734,0.19206919998396188
56,16,0.0,2,False,0.0,None,right,False,2,1,0,enc,0,0,0,[],[],2,6,4 3 2 1 2 2,4,0.0,0.0,0.0,0.0,0.0,0.0,0,0.0,0.0,0.0,0.0,0.0
57,17,6.618049199983942,2,True,0.5,acc,right,True,2,1,4,ret,1,4,0,"['2', '2', '1', '3', '4', '4']","[110.17278850002913, 110.36181239999132, 113.2017685000319, 113.399843399995, 114.87977260001935, 116.79083770001307]",2,6,# # # # # #,None,110.17278850002913,110.36181239999132,113.2017685000319,113.399843399995,114.87977260001935,116.79083770001307,3.504925000015646,0.18902389996219426,2.839956100040581,0.19807489996310323,1.479929200024344,1.9110650999937207
58,18,0.0,2,False,0.0,None,right,False,2,1,0,enc,0,0,1,[],[],2,6,3 1 4 4 2 3,4,0.0,0.0,0.0,0.0,0.0,0.0,0,0.0,0.0,0.0,0.0,0.0
59,19,2.180018500017468,2,True,0.5,acc,right,False,2,1,6,ret,1,10,1,"['3', '1', '4', '4', '2', '3']","[126.24372969998512, 126.66571809997549, 127.08171719999518, 127.3818203000119, 128.08085319999373, 128.4237482000026]",2,6,# # # # # #,None,126.24372969998512,126.66571809997549,127.08171719999518,127.3818203000119,128.08085319999373,128.4237482000026,2.952891999972053,0.42198839999036863,0.41599910001968965,0.30010310001671314,0.6990328999818303,0.3428950000088662
60,20,0.0,3,False,0.0,None,right,False,2,1,0,enc,0,0,0,[],[],2,6,1 1 4 4 3 2,6,0.0,0.0,0.0,0.0,0.0,0.0,0,0.0,0.0,0.0,0.0,0.0
61,21,16.395853299996816,3,True,0.5,acc,right,True,2,1,4,ret,1,4,0,"['3', '3', '3', '4', '1', '1']","[129.97086930001387, 142.30975070002023, 142.60478069999954, 145.61079639999662, 146.16975519998232, 146.3667226000107]",2,6,# # # # # #,None,129.97086930001387,142.30975070002023,142.60478069999954,145.61079639999662,146.16975519998232,146.3667226000107,-4.952878899988718,12.338881400006358,0.295029999979306,3.0060156999970786,0.5589587999857031,0.19696740002837032
62,22,0.0,2,False,0.0,None,right,False,2,1,0,enc,0,0,1,[],[],2,6,4 2 1 2 4 1,4,0.0,0.0,0.0,0.0,0.0,0.0,0,0.0,0.0,0.0,0.0,0.0
63,23,2.1809578000102188,2,True,0.5,acc,right,False,2,1,6,ret,1,10,1,"['4', '2', '1', '2', '4', '1']","[155.08074469998246, 155.6177884999779, 156.10774130001664, 156.56171330000507, 156.91970020002918, 157.26170249999268]",2,6,# # # # # #,None,155.08074469998246,155.6177884999779,156.10774130001664,156.56171330000507,156.91970020002918,157.26170249999268,2.2140220999717712,0.5370437999954447,0.4899528000387363,0.4539719999884255,0.35798690002411604,0.3420022999634966
64,0,0.0,2,False,0.0,None,right,False,2,1,0,enc,0,0,1,[],[],3,6,1 3 3 1 2 3,4,0.0,0.0,0.0,0.0,0.0,0.0,0,0.0,0.0,0.0,0.0,0.0
65,1,1.6990120999980718,2,True,0.5,acc,right,False,2,1,6,ret,1,10,1,"['1', '3', '3', '1', '2', '3']","[6.655179499997757, 6.943409800005611, 7.173223899968434, 7.384318900003564, 8.166240799997468, 8.35419159999583]",3,6,# # # # # #,None,6.655179499997757,6.943409800005611,7.173223899968434,7.384318900003564,8.166240799997468,8.35419159999583,NaN,0.28823030000785366,0.2298140999628231,0.2110950000351295,0.7819218999939039,0.18795079999836162
66,2,0.0,3,False,0.0,None,right,False,2,1,0,enc,0,0,0,[],[],3,6,2 3 1 2 2 1,6,0.0,0.0,0.0,0.0,0.0,0.0,0,0.0,0.0,0.0,0.0,0.0
67,3,2.7200224000262097,3,True,0.5,acc,right,False,2,1,6,ret,1,10,0,"['1', '2', '2', '1', '3', '2']","[15.742182399961166, 15.991835299995728, 16.154151299968362, 17.51014229998691, 18.261232299963012, 18.462204799987376]",3,6,# # # # # #,None,15.742182399961166,15.991835299995728,16.154151299968362,17.51014229998691,18.261232299963012,18.462204799987376,0.8879907999653369,0.24965290003456175,0.16231599997263402,1.3559910000185482,0.7510899999761023,0.2009725000243634
68,4,0.0,3,False,0.0,None,right,False,2,1,0,enc,0,0,1,[],[],3,6,4 1 3 2 2 1,6,0.0,0.0,0.0,0.0,0.0,0.0,0,0.0,0.0,0.0,0.0,0.0
69,5,1.2619865000015125,3,True,0.5,acc,right,False,2,1,6,ret,1,10,1,"['4', '1', '3', '2', '2', '1']","[24.759148499986622, 25.105141099949833, 25.422145599965006, 25.676229599979706, 25.851244499965105, 26.021134999988135]",3,6,# # # # # #,None,24.759148499986622,25.105141099949833,25.422145599965006,25.676229599979706,25.851244499965105,26.021134999988135,-0.20305630000075325,0.3459925999632105,0.3170045000151731,0.2540840000147,0.1750148999853991,0.16989050002302974
70,6,0.0,2,False,0.0,None,right,False,2,1,0,enc,0,0,0,[],[],3,6,3 4 4 3 4 1,4,0.0,0.0,0.0,0.0,0.0,0.0,0,0.0,0.0,0.0,0.0,0.0
71,7,7.204954600019847,2,True,0.5,acc,right,True,2,1,4,ret,1,4,0,"['1', '4', '3', '4', '3', '4']","[35.3621906999615, 35.69114859995898, 38.556246699998155, 39.00228049996076, 42.1571619999595, 42.56714529998135]",3,6,# # # # # #,None,35.3621906999615,35.69114859995898,38.556246699998155,39.00228049996076,42.1571619999595,42.56714529998135,2.841055699973367,0.3289578999974765,2.8650981000391766,0.4460337999626063,3.154881499998737,0.4099833000218496
72,8,0.0,3,False,0.0,None,right,False,2,1,0,enc,0,0,1,[],[],3,6,1 2 2 4 4 3,6,0.0,0.0,0.0,0.0,0.0,0.0,0,0.0,0.0,0.0,0.0,0.0
73,9,1.6170002000289967,3,True,0.5,acc,right,True,2,1,5,ret,1,5,1,"['1', '2', '2', '4', '3', '3']","[48.67015929997433, 48.97765789995901, 49.182451399974525, 49.78434479999123, 50.10815039998852, 50.28715950000333]",3,6,# # # # # #,None,48.67015929997433,48.97765789995901,49.182451399974525,49.78434479999123,50.10815039998852,50.28715950000333,-0.39698600000701845,0.3074985999846831,0.2047935000155121,0.6018934000167064,0.32380559999728575,0.17900910001480952
74,10,0.0,2,False,0.0,None,right,False,2,1,0,enc,0,0,0,[],[],3,6,4 4 3 2 3 3,4,0.0,0.0,0.0,0.0,0.0,0.0,0,0.0,0.0,0.0,0.0,0.0
75,11,9.378985599963926,2,True,0.5,acc,right,True,2,1,2,ret,1,2,0,"['4', '4', '3', '4', '4', '4']","[58.292127799999435, 61.96604430000298, 65.56611580000026, 65.88503819995094, 67.39015019999351, 67.67111339996336]",3,6,# # # # # #,None,58.292127799999435,61.96604430000298,65.56611580000026,65.88503819995094,67.39015019999351,67.67111339996336,1.5049682999961078,3.6739165000035428,3.6000714999972843,0.3189223999506794,1.5051120000425726,0.28096319996984676
76,12,0.0,3,False,0.0,None,right,False,2,1,0,enc,0,0,0,[],[],3,6,2 4 3 2 2 4,6,0.0,0.0,0.0,0.0,0.0,0.0,0,0.0,0.0,0.0,0.0,0.0
77,13,4.425950699951501,3,True,0.5,acc,right,True,2,1,3,ret,1,3,0,"['4', '2', '2', '4', '2', '4']","[78.20812520000618, 78.56710389995715, 78.77348479995271, 80.5652015999658, 82.27009479998378, 82.63407589995768]",3,6,# # # # # #,None,78.20812520000618,78.56710389995715,78.77348479995271,80.5652015999658,82.27009479998378,82.63407589995768,4.037011800042819,0.358978699950967,0.20638089999556541,1.7917168000130914,1.7048932000179775,0.3639810999738984
78,14,0.0,2,False,0.0,None,right,False,2,1,0,enc,0,0,0,[],[],3,6,2 3 4 4 1 2,4,0.0,0.0,0.0,0.0,0.0,0.0,0,0.0,0.0,0.0,0.0,0.0
79,15,5.178963400016073,2,True,0.5,acc,right,True,2,1,2,ret,1,2,0,"['2', '1', '3', '2', '4', '4']","[95.01707469997928, 95.31609819998266, 98.34531389997574, 98.58810749999247, 99.89641929999925, 100.19603809999535]",3,6,# # # # # #,None,95.01707469997928,95.31609819998266,98.34531389997574,98.58810749999247,99.89641929999925,100.19603809999535,5.882998800021596,0.2990235000033863,3.029215699993074,0.24279360001673922,1.308311800006777,0.29961879999609664
80,16,0.0,3,False,0.0,None,right,False,2,1,0,enc,0,0,1,[],[],3,6,2 1 1 2 4 1,6,0.0,0.0,0.0,0.0,0.0,0.0,0,0.0,0.0,0.0,0.0,0.0
81,17,1.4981339999940246,3,True,0.5,acc,right,False,2,1,6,ret,1,10,1,"['2', '1', '1', '2', '4', '1']","[107.16704059997573, 107.4620838999981, 107.67410509998444, 108.01605539995944, 108.38299630000256, 108.66517459996976]",3,6,# # # # # #,None,107.16704059997573,107.4620838999981,107.67410509998444,108.01605539995944,108.38299630000256,108.66517459996976,0.47100249998038635,0.2950433000223711,0.21202119998633862,0.3419502999749966,0.36694090004311875,0.28217829996719956
82,18,0.0,3,False,0.0,None,right,False,2,1,0,enc,0,0,0,[],[],3,6,3 2 1 1 3 2,6,0.0,0.0,0.0,0.0,0.0,0.0,0,0.0,0.0,0.0,0.0,0.0
83,19,6.704921500000638,3,True,0.5,acc,right,True,2,1,3,ret,1,3,0,"['2', '3', '2', '1', '3', '2']","[117.39410959999077, 118.90612030000193, 119.29102149995742, 122.42116649996024, 122.88317009998718, 124.09903109999141]",3,6,# # # # # #,None,117.39410959999077,118.90612030000193,119.29102149995742,122.42116649996024,122.88317009998718,124.09903109999141,2.2289350000210106,1.5120107000111602,0.3849011999554932,3.1301450000028126,0.4620036000269465,1.2158610000042245
84,20,0.0,2,False,0.0,None,right,False,2,1,0,enc,0,0,1,[],[],3,6,1 4 1 4 2 1,4,0.0,0.0,0.0,0.0,0.0,0.0,0,0.0,0.0,0.0,0.0,0.0
85,21,1.7729702999931762,2,True,0.5,acc,right,False,2,1,6,ret,1,10,1,"['1', '4', '1', '4', '2', '1']","[132.8590608999948, 133.16951159999007, 133.49403359997086, 133.76426829997217, 134.44504869997036, 134.63203119998798]",3,6,# # # # # #,None,132.8590608999948,133.16951159999007,133.49403359997086,133.76426829997217,134.44504869997036,134.63203119998798,2.2600298000033945,0.31045069999527186,0.3245219999807887,0.27023470000131056,0.6807803999981843,0.18698250001762062
86,22,0.0,2,False,0.0,None,right,False,2,1,0,enc,0,0,1,[],[],3,6,1 3 2 1 1 3,4,0.0,0.0,0.0,0.0,0.0,0.0,0,0.0,0.0,0.0,0.0,0.0
87,23,1.4020215999917127,2,True,0.5,acc,right,False,2,1,6,ret,1,10,1,"['1', '3', '2', '1', '1', '3']","[143.30401719996007, 143.6090825999854, 143.92701599997235, 144.1800830999855, 144.40201029996388, 144.70603879995178]",3,6,# # # # # #,None,143.30401719996007,143.6090825999854,143.92701599997235,144.1800830999855,144.40201029996388,144.70603879995178,2.171985999972094,0.30506540002534166,0.31793339998694137,0.2530671000131406,0.2219271999783814,0.3040284999879077
88,0,0.0,2,False,0.0,None,right,False,2,1,0,enc,0,0,1,[],[],4,6,4 4 1 3 2 2,4,0.0,0.0,0.0,0.0,0.0,0.0,0,0.0,0.0,0.0,0.0,0.0
89,1,1.2149944999837317,2,True,0.5,acc,right,False,2,1,6,ret,1,10,1,"['4', '4', '1', '3', '2', '2']","[6.713570000021718, 6.945365100051276, 7.225309300003573, 7.461526400002185, 7.753399700042792, 7.92856450000545]",4,6,# # # # # #,None,6.713570000021718,6.945365100051276,7.225309300003573,7.461526400002185,7.753399700042792,7.92856450000545,NaN,0.23179510002955794,0.2799441999522969,0.23621709999861196,0.2918733000406064,0.17516479996265844
90,2,0.0,2,False,0.0,None,right,False,2,1,0,enc,0,0,0,[],[],4,6,3 2 1 3 4 3,4,0.0,0.0,0.0,0.0,0.0,0.0,0,0.0,0.0,0.0,0.0,0.0
91,3,6.360353600000964,2,True,0.5,acc,right,True,2,1,5,ret,1,5,0,"['3', '4', '1', '1', '2', '3']","[18.718458999996074, 19.08542610000586, 21.374437400023453, 23.067478800017852, 24.86644770001294, 25.078812599997036]",4,6,# # # # # #,None,18.718458999996074,19.08542610000586,21.374437400023453,23.067478800017852,24.86644770001294,25.078812599997036,4.2898944999906234,0.3669671000097878,2.2890113000175916,1.6930413999943994,1.7989688999950886,0.21236489998409525
92,4,0.0,3,False,0.0,None,right,False,2,1,0,enc,0,0,0,[],[],4,6,2 3 2 3 1 2,6,0.0,0.0,0.0,0.0,0.0,0.0,0,0.0,0.0,0.0,0.0,0.0
93,5,5.142990499967709,3,True,0.5,acc,right,True,2,1,3,ret,1,3,0,"['2', '1', '3', '3', '2', '3']","[35.96130190003896, 36.31429730000673, 36.69345320004504, 38.48248530004639, 39.86343580001267, 41.10429240000667]",4,6,# # # # # #,None,35.96130190003896,36.31429730000673,36.69345320004504,38.48248530004639,39.86343580001267,41.10429240000667,4.382489300041925,0.3529953999677673,0.3791559000383131,1.78903210000135,1.380950499966275,1.2408565999940038
94,6,0.0,3,False,0.0,None,right,False,2,1,0,enc,0,0,1,[],[],4,6,4 4 4 2 2 1,6,0.0,0.0,0.0,0.0,0.0,0.0,0,0.0,0.0,0.0,0.0,0.0
95,7,1.3130419999943117,3,True,0.5,acc,right,False,2,1,6,ret,1,10,1,"['4', '4', '4', '2', '2', '1']","[47.423447900044266, 47.66560050001135, 47.947512300044764, 48.42943210003432, 48.59448940004222, 48.73648990003858]",4,6,# # # # # #,None,47.423447900044266,47.66560050001135,47.947512300044764,48.42943210003432,48.59448940004222,48.73648990003858,-0.18084449996240437,0.24215259996708483,0.2819118000334129,0.48191979998955503,0.16505730000790209,0.14200049999635667
96,8,0.0,2,False,0.0,None,right,False,2,1,0,enc,0,0,1,[],[],4,6,3 1 4 3 4 1,4,0.0,0.0,0.0,0.0,0.0,0.0,0,0.0,0.0,0.0,0.0,0.0
97,9,5.486999899963847,2,True,0.5,acc,right,True,2,1,5,ret,1,5,1,"['3', '2', '4', '3', '4', '1']","[57.868369800038636, 58.17749780003214, 61.67633889999706, 62.071394000027794, 63.13641840004129, 63.355369700002484]",4,6,# # # # # #,None,57.868369800038636,58.17749780003214,61.67633889999706,62.071394000027794,63.13641840004129,63.355369700002484,2.631879900000058,0.3091279999935068,3.4988410999649204,0.3950551000307314,1.065024400013499,0.21895129996119067
98,10,0.0,3,False,0.0,None,right,False,2,1,0,enc,0,0,1,[],[],4,6,3 1 4 2 4 3,6,0.0,0.0,0.0,0.0,0.0,0.0,0,0.0,0.0,0.0,0.0,0.0
99,11,2.92108780000126,3,True,0.5,acc,right,False,2,1,6,ret,1,10,1,"['3', '1', '4', '2', '4', '3']","[70.35137859999668, 71.20039640000323, 71.54126960004214, 72.62032850005198, 72.89848990004975, 73.27246639999794]",4,6,# # # # # #,None,70.35137859999668,71.20039640000323,71.54126960004214,72.62032850005198,72.89848990004975,73.27246639999794,0.4960088999941945,0.8490178000065498,0.34087320003891364,1.0790589000098407,0.2781613999977708,0.37397649994818494
100,12,0.0,2,False,0.0,None,right,False,2,1,0,enc,0,0,0,[],[],4,6,2 1 4 1 4 4,4,0.0,0.0,0.0,0.0,0.0,0.0,0,0.0,0.0,0.0,0.0,0.0
101,13,4.558046000020113,2,True,0.5,acc,right,False,2,1,6,ret,1,10,0,"['4', '4', '1', '4', '1', '2']","[81.34142730000895, 81.59877010004129, 83.71947330003604, 83.92033470002934, 85.73526420001872, 85.89947330002906]",4,6,# # # # # #,None,81.34142730000895,81.59877010004129,83.71947330003604,83.92033470002934,85.73526420001872,85.89947330002906,1.5689609000110067,0.25734280003234744,2.1207031999947503,0.20086139999330044,1.8149294999893755,0.16420910001033917
102,14,0.0,3,False,0.0,None,right,False,2,1,0,enc,0,0,0,[],[],4,6,4 4 4 2 2 3,6,0.0,0.0,0.0,0.0,0.0,0.0,0,0.0,0.0,0.0,0.0,0.0
103,15,1.173967899987474,3,True,0.5,acc,right,False,2,1,6,ret,1,10,0,"['3', '2', '2', '4', '4', '4']","[95.07239830004983, 95.40137100004358, 95.59343080001418, 95.821489199996, 96.01935850002337, 96.2463662000373]",4,6,# # # # # #,None,95.07239830004983,95.40137100004358,95.59343080001418,95.821489199996,96.01935850002337,96.2463662000373,2.6729250000207685,0.32897269999375567,0.1920597999705933,0.2280583999818191,0.1978693000273779,0.22700770001392812
104,16,0.0,2,False,0.0,None,right,False,2,1,0,enc,0,0,1,[],[],4,6,4 2 3 2 4 3,4,0.0,0.0,0.0,0.0,0.0,0.0,0,0.0,0.0,0.0,0.0,0.0
105,17,3.0421360000036657,2,True,0.5,acc,right,False,2,1,6,ret,1,10,1,"['4', '2', '3', '2', '4', '3']","[104.97535600000992, 105.36558460001834, 106.7743759000441, 107.10230680002132, 107.55037900002208, 108.01749200001359]",4,6,# # # # # #,None,104.97535600000992,105.36558460001834,106.7743759000441,107.10230680002132,107.55037900002208,108.01749200001359,2.2289897999726236,0.3902286000084132,1.4087913000257686,0.32793089997721836,0.44807220000075176,0.4671129999915138
106,18,0.0,2,False,0.0,None,right,False,2,1,0,enc,0,0,0,[],[],4,6,4 4 2 3 3 4,4,0.0,0.0,0.0,0.0,0.0,0.0,0,0.0,0.0,0.0,0.0,0.0
107,19,3.900994500028901,2,True,0.5,acc,right,False,2,1,6,ret,1,10,0,"['4', '3', '3', '2', '4', '4']","[118.20940910000354, 118.5533336000517, 120.95939220004948, 121.26937870000256, 121.90827080002055, 122.11040360003244]",4,6,# # # # # #,None,118.20940910000354,118.5533336000517,120.95939220004948,121.26937870000256,121.90827080002055,122.11040360003244,3.6919170999899507,0.34392450004816055,2.4060585999977775,0.3099864999530837,0.6388921000179835,0.2021328000118956
108,20,0.0,3,False,0.0,None,right,False,2,1,0,enc,0,0,1,[],[],4,6,3 3 3 1 1 2,6,0.0,0.0,0.0,0.0,0.0,0.0,0,0.0,0.0,0.0,0.0,0.0
109,21,1.0960747000062838,3,True,0.5,acc,right,False,2,1,6,ret,1,10,1,"['3', '3', '3', '1', '1', '2']","[128.64238920004573, 128.86233180004638, 129.09933210001327, 129.34302490000846, 129.51835010002833, 129.738463900052]",4,6,# # # # # #,None,128.64238920004573,128.86233180004638,129.09933210001327,129.34302490000846,129.51835010002833,129.738463900052,0.031985600013285875,0.2199426000006497,0.2370002999668941,0.24369279999518767,0.17532520001986995,0.22011380002368242
110,22,0.0,3,False,0.0,None,right,False,2,1,0,enc,0,0,0,[],[],4,6,1 4 3 2 2 1,6,0.0,0.0,0.0,0.0,0.0,0.0,0,0.0,0.0,0.0,0.0,0.0
111,23,3.821888500009664,3,True,0.5,acc,right,True,2,1,4,ret,1,4,0,"['1', '2', '2', '4', '4', '3']","[136.53044060000684, 136.77734780003084, 136.95339260000037, 139.74731800000882, 140.01833890000125, 140.3523291000165]",4,6,# # # # # #,None,136.53044060000684,136.77734780003084,136.95339260000037,139.74731800000882,140.01833890000125,140.3523291000165,0.2919766999548301,0.24690720002399758,0.1760447999695316,2.7939254000084475,0.27102089999243617,0.3339902000152506
112,0,0.0,3,False,0.0,None,right,False,2,1,0,enc,0,0,1,[],[],5,6,4 3 1 1 1 1,6,0.0,0.0,0.0,0.0,0.0,0.0,0,0.0,0.0,0.0,0.0,0.0
113,1,1.2240632000030018,3,True,0.5,acc,right,False,2,1,6,ret,1,10,1,"['4', '3', '1', '1', '1', '1']","[4.807506199984346, 5.222477599978447, 5.46851749997586, 5.672476799983997, 5.865494599973317, 6.031569399987347]",5,6,# # # # # #,None,4.807506199984346,5.222477599978447,5.46851749997586,5.672476799983997,5.865494599973317,6.031569399987347,NaN,0.4149713999941014,0.24603989999741316,0.20395930000813678,0.19301779998932034,0.1660748000140302
114,2,0.0,3,False,0.0,None,right,False,2,1,0,enc,0,0,1,[],[],5,6,2 4 2 3 2 4,6,0.0,0.0,0.0,0.0,0.0,0.0,0,0.0,0.0,0.0,0.0,0.0
115,3,2.586949200020172,3,True,0.5,acc,right,False,2,1,6,ret,1,10,1,"['2', '4', '2', '3', '2', '4']","[12.254482799966354, 12.539545799954794, 12.846568399982061, 14.289651900005993, 14.554130499949679, 14.841431999986526]",5,6,# # # # # #,None,12.254482799966354,12.539545799954794,12.846568399982061,14.289651900005993,14.554130499949679,14.841431999986526,-0.2770866000209935,0.2850629999884404,0.3070226000272669,1.4430835000239313,0.2644785999436863,0.28730150003684685
116,4,0.0,2,False,0.0,None,right,False,2,1,0,enc,0,0,1,[],[],5,6,4 3 3 2 2 2,4,0.0,0.0,0.0,0.0,0.0,0.0,0,0.0,0.0,0.0,0.0,0.0
117,5,4.549876700039022,2,True,0.5,acc,right,False,2,1,6,ret,1,10,1,"['4', '3', '3', '2', '2', '2']","[23.155603499966674, 23.519449799961876, 26.66750589996809, 26.93851619999623, 27.491447199950926, 27.705480200005695]",5,6,# # # # # #,None,23.155603499966674,23.519449799961876,26.66750589996809,26.93851619999623,27.491447199950926,27.705480200005695,1.814171499980148,0.36384629999520257,3.1480561000062153,0.27101030002813786,0.5529309999546967,0.21403300005476922
118,6,0.0,2,False,0.0,None,right,False,2,1,0,enc,0,0,1,[],[],5,6,2 3 1 3 2 3,4,0.0,0.0,0.0,0.0,0.0,0.0,0,0.0,0.0,0.0,0.0,0.0
119,7,1.3661401999997906,2,True,0.5,acc,right,False,2,1,6,ret,1,10,1,"['2', '3', '1', '3', '2', '3']","[36.1803324999637, 36.44750769995153, 36.7264563999488, 36.96997979999287, 37.381520199996885, 37.54647269996349]",5,6,# # # # # #,None,36.1803324999637,36.44750769995153,36.7264563999488,36.96997979999287,37.381520199996885,37.54647269996349,1.9748522999580018,0.26717519998783246,0.27894869999727234,0.2435234000440687,0.4115404000040144,0.16495249996660277
120,8,0.0,2,False,0.0,None,right,False,2,1,0,enc,0,0,0,[],[],5,6,3 2 3 1 3 4,4,0.0,0.0,0.0,0.0,0.0,0.0,0,0.0,0.0,0.0,0.0,0.0
121,9,3.628038200025912,2,True,0.5,acc,right,False,2,1,6,ret,1,10,0,"['4', '3', '1', '3', '2', '3']","[46.86052299995208, 47.11657729995204, 48.481519099965226, 48.65252079995116, 50.31047889997717, 50.488561199977994]",5,6,# # # # # #,None,46.86052299995208,47.11657729995204,48.481519099965226,48.65252079995116,50.31047889997717,50.488561199977994,2.814050299988594,0.25605429999995977,1.3649418000131845,0.17100169998593628,1.6579581000260077,0.17808230000082403
122,10,0.0,3,False,0.0,None,right,False,2,1,0,enc,0,0,0,[],[],5,6,1 3 1 4 1 1,6,0.0,0.0,0.0,0.0,0.0,0.0,0,0.0,0.0,0.0,0.0,0.0
123,11,2.587029099988285,3,True,0.5,acc,right,False,2,1,6,ret,1,10,0,"['1', '1', '4', '1', '3', '1']","[58.13549809996039, 58.30551659996854, 58.55241499998374, 60.40048640000168, 60.57742689998122, 60.72252719994867]",5,6,# # # # # #,None,58.13549809996039,58.30551659996854,58.55241499998374,60.40048640000168,60.57742689998122,60.72252719994867,1.1469368999823928,0.17001850000815466,0.2468984000151977,1.8480714000179432,0.17694049997953698,0.14510029996745288
124,12,0.0,3,False,0.0,None,right,False,2,1,0,enc,0,0,0,[],[],5,6,3 3 4 4 1 1,6,0.0,0.0,0.0,0.0,0.0,0.0,0,0.0,0.0,0.0,0.0,0.0
125,13,2.62990419997368,3,True,0.5,acc,right,False,2,1,6,ret,1,10,0,"['1', '1', '4', '4', '3', '3']","[67.63648689998081, 67.82048910000594, 68.0413938999991, 69.81226099998457, 70.09045089996653, 70.26639109995449]",5,6,# # # # # #,None,67.63648689998081,67.82048910000594,68.0413938999991,69.81226099998457,70.09045089996653,70.26639109995449,0.41395970003213733,0.1840022000251338,0.22090479999314994,1.7708670999854803,0.2781898999819532,0.17594019998796284
126,14,0.0,2,False,0.0,None,right,False,2,1,0,enc,0,0,0,[],[],5,6,1 4 1 2 4 4,4,0.0,0.0,0.0,0.0,0.0,0.0,0,0.0,0.0,0.0,0.0,0.0
127,15,3.249923299998045,2,True,0.5,acc,right,False,2,1,6,ret,1,10,0,"['4', '4', '2', '1', '4', '1']","[78.91044399997918, 79.16543009999441, 80.67846229998395, 80.88543289998779, 81.93953749997308, 82.16036729997722]",5,6,# # # # # #,None,78.91044399997918,79.16543009999441,80.67846229998395,80.88543289998779,81.93953749997308,82.16036729997722,2.1440529000246897,0.2549861000152305,1.5130321999895386,0.20697060000384226,1.054104599985294,0.22082980000413954
128,16,0.0,2,False,0.0,None,right,False,2,1,0,enc,0,0,1,[],[],5,6,1 2 2 1 4 2,4,0.0,0.0,0.0,0.0,0.0,0.0,0,0.0,0.0,0.0,0.0,0.0
129,17,3.2025478000286967,2,True,0.5,acc,right,False,2,1,6,ret,1,10,1,"['1', '2', '2', '1', '4', '2']","[90.93654549994972, 91.29258979996666, 93.14744829997653, 93.3734390999889, 93.86544809996849, 94.13909329997841]",5,6,# # # # # #,None,90.93654549994972,91.29258979996666,93.14744829997653,93.3734390999889,93.86544809996849,94.13909329997841,2.2761781999724917,0.3560443000169471,1.8548585000098683,0.2259908000123687,0.49200899997958913,0.27364520000992343
130,18,0.0,3,False,0.0,None,right,False,2,1,0,enc,0,0,1,[],[],5,6,2 2 1 3 1 3,6,0.0,0.0,0.0,0.0,0.0,0.0,0,0.0,0.0,0.0,0.0,0.0
131,19,1.2529970000032336,3,True,0.5,acc,right,False,2,1,6,ret,1,10,1,"['2', '2', '1', '3', '1', '3']","[101.69946969999, 101.88548549998086, 102.09135369997239, 102.56548739998834, 102.77027389995055, 102.95246669999324]",5,6,# # # # # #,None,101.69946969999,101.88548549998086,102.09135369997239,102.56548739998834,102.77027389995055,102.95246669999324,1.0603764000115916,0.18601579999085516,0.20586819999152794,0.4741337000159547,0.20478649996221066,0.18219280004268512
132,20,0.0,2,False,0.0,None,right,False,2,1,0,enc,0,0,0,[],[],5,6,3 4 2 3 1 4,4,0.0,0.0,0.0,0.0,0.0,0.0,0,0.0,0.0,0.0,0.0,0.0
133,21,4.650258100009523,2,True,0.5,acc,right,True,2,1,4,ret,1,4,0,"['4', '1', '3', '2', '1', '4']","[113.04544839996379, 113.44147979997797, 115.19143059995258, 115.45841109997127, 117.33139909995953, 117.69570649997331]",5,6,# # # # # #,None,113.04544839996379,113.44147979997797,115.19143059995258,115.45841109997127,117.33139909995953,117.69570649997331,3.592981699970551,0.3960314000141807,1.749950799974613,0.2669805000186898,1.8729879999882542,0.3643074000137858
134,22,0.0,3,False,0.0,None,right,False,2,1,0,enc,0,0,0,[],[],5,6,2 3 3 3 4 2,6,0.0,0.0,0.0,0.0,0.0,0.0,0,0.0,0.0,0.0,0.0,0.0
135,23,4.890019299986307,3,True,0.5,acc,right,True,2,1,3,ret,1,3,0,"['2', '4', '3', '2', '2', '3']","[126.83131829998456, 127.13651889999164, 127.60650579998037, 131.04640559997642, 131.45243099995423, 131.72133759997087]",5,6,# # # # # #,None,126.83131829998456,127.13651889999164,127.60650579998037,131.04640559997642,131.45243099995423,131.72133759997087,2.6356118000112474,0.30520060000708327,0.4699868999887258,3.4398997999960557,0.40602539997780696,0.2689066000166349
136,0,0.0,2,False,0.0,None,right,False,2,1,0,enc,0,0,1,[],[],6,6,2 3 1 1 2 3,4,0.0,0.0,0.0,0.0,0.0,0.0,0,0.0,0.0,0.0,0.0,0.0
137,1,1.4562143000075594,2,True,0.5,acc,right,False,2,1,6,ret,1,10,1,"['2', '3', '1', '1', '2', '3']","[6.564009099965915, 6.799012799980119, 7.051023499981966, 7.591036600002553, 7.832968599977903, 8.020223399973474]",6,6,# # # # # #,None,6.564009099965915,6.799012799980119,7.051023499981966,7.591036600002553,7.832968599977903,8.020223399973474,NaN,0.2350037000142038,0.252010700001847,0.5400131000205874,0.24193199997534975,0.18725479999557137
138,2,0.0,3,False,0.0,None,right,False,2,1,0,enc,0,0,1,[],[],6,6,2 3 3 4 2 2,6,0.0,0.0,0.0,0.0,0.0,0.0,0,0.0,0.0,0.0,0.0,0.0
139,3,1.5319887999794446,3,True,0.5,acc,right,False,2,1,6,ret,1,10,1,"['2', '3', '3', '4', '2', '2']","[14.699903399974573, 15.029046699986793, 15.124960899993312, 15.651870200003032, 16.070064899977297, 16.231892199954018]",6,6,# # # # # #,None,14.699903399974573,15.029046699986793,15.124960899993312,15.651870200003032,16.070064899977297,16.231892199954018,0.17968000000109896,0.3291433000122197,0.09591420000651851,0.52690930000972,0.41819469997426495,0.1618272999767214
140,4,0.0,2,False,0.0,None,right,False,2,1,0,enc,0,0,0,[],[],6,6,3 1 2 4 4 4,4,0.0,0.0,0.0,0.0,0.0,0.0,0,0.0,0.0,0.0,0.0,0.0
141,5,3.6158990999683738,2,True,0.5,acc,right,False,2,1,6,ret,1,10,0,"['4', '4', '4', '2', '1', '3']","[24.93509919999633, 25.126146800001152, 27.318142999953125, 27.689077899965923, 28.257132400001865, 28.550998299964704]",6,6,# # # # # #,None,24.93509919999633,25.126146800001152,27.318142999953125,27.689077899965923,28.257132400001865,28.550998299964704,2.203207000042312,0.19104760000482202,2.191996199951973,0.3709349000127986,0.5680545000359416,0.29386589996283874
142,6,0.0,3,False,0.0,None,right,False,2,1,0,enc,0,0,1,[],[],6,6,3 3 1 3 2 2,6,0.0,0.0,0.0,0.0,0.0,0.0,0,0.0,0.0,0.0,0.0,0.0
143,7,3.7440345999784768,3,True,0.5,acc,right,True,2,1,5,ret,1,5,1,"['3', '1', '1', '3', '2', '2']","[35.42600759997731, 35.764077199972235, 35.952078599948436, 38.73299559997395, 39.082019999972545, 39.17004219995579]",6,6,# # # # # #,None,35.42600759997731,35.764077199972235,35.952078599948436,38.73299559997395,39.082019999972545,39.17004219995579,0.3750093000126071,0.3380695999949239,0.18800139997620136,2.780917000025511,0.3490243999985978,0.0880221999832429
144,8,0.0,2,False,0.0,None,right,False,2,1,0,enc,0,0,1,[],[],6,6,1 2 2 2 4 1,4,0.0,0.0,0.0,0.0,0.0,0.0,0,0.0,0.0,0.0,0.0,0.0
145,9,10.400143900013065,2,True,0.5,acc,right,True,2,1,5,ret,1,5,1,"['2', '2', '2', '2', '4', '1']","[40.719856499985326, 49.125040099956095, 49.34205039998051, 50.62816769996425, 50.88801259995671, 51.12000039999839]",6,6,# # # # # #,None,40.719856499985326,49.125040099956095,49.34205039998051,50.62816769996425,50.88801259995671,51.12000039999839,-4.950185699970461,8.40518359997077,0.21701030002441257,1.2861172999837436,0.2598448999924585,0.2319878000416793
146,10,0.0,3,False,0.0,None,right,False,2,1,0,enc,0,0,1,[],[],6,6,3 1 4 4 2 4,6,0.0,0.0,0.0,0.0,0.0,0.0,0,0.0,0.0,0.0,0.0,0.0
147,11,2.621981100004632,3,True,0.5,acc,right,False,2,1,6,ret,1,10,1,"['3', '1', '4', '4', '2', '4']","[57.50000649999129, 58.095935499994084, 58.47602619999088, 59.349986299988814, 59.85707289999118, 60.12198759999592]",6,6,# # # # # #,None,57.50000649999129,58.095935499994084,58.47602619999088,59.349986299988814,59.85707289999118,60.12198759999592,-0.11999390000710264,0.5959290000027977,0.38009069999679923,0.8739600999979302,0.507086600002367,0.2649147000047378
148,12,0.0,3,False,0.0,None,right,False,2,1,0,enc,0,0,0,[],[],6,6,3 4 1 3 4 2,6,0.0,0.0,0.0,0.0,0.0,0.0,0,0.0,0.0,0.0,0.0,0.0
149,13,3.830013400001917,3,True,0.5,acc,right,False,2,1,6,ret,1,10,0,"['2', '4', '3', '1', '4', '3']","[68.39092789997812, 68.79695709998487, 69.30301629996393, 71.08906459994614, 71.38998949999223, 72.22094129998004]",6,6,# # # # # #,None,68.39092789997812,68.79695709998487,69.30301629996393,71.08906459994614,71.38998949999223,72.22094129998004,1.768940299982205,0.40602920000674203,0.5060591999790631,1.7860482999822125,0.3009249000460841,0.8309517999878153
150,14,0.0,3,False,0.0,None,right,False,2,1,0,enc,0,0,0,[],[],6,6,1 2 1 3 1 1,6,0.0,0.0,0.0,0.0,0.0,0.0,0,0.0,0.0,0.0,0.0,0.0
151,15,3.099835700006224,3,True,0.5,acc,right,True,2,1,5,ret,1,5,0,"['1', '1', '3', '1', '2', '3']","[79.32196459994884, 79.49718239996582, 79.70495799998753, 82.02095129998634, 82.22082479996607, 82.42180029995507]",6,6,# # # # # #,None,79.32196459994884,79.49718239996582,79.70495799998753,82.02095129998634,82.22082479996607,82.42180029995507,0.6010232999688014,0.17521780001698062,0.20777560002170503,2.3159932999988087,0.1998734999797307,0.20097549998899922
152,16,0.0,2,False,0.0,None,right,False,2,1,0,enc,0,0,1,[],[],6,6,2 1 4 3 3 2,4,0.0,0.0,0.0,0.0,0.0,0.0,0,0.0,0.0,0.0,0.0,0.0
153,17,1.573914899956435,2,True,0.5,acc,right,False,2,1,6,ret,1,10,1,"['2', '1', '4', '3', '3', '2']","[91.07995220000157, 91.38101959996857, 91.87500389997149, 92.23595319996821, 92.4379348999937, 92.653867099958]",6,6,# # # # # #,None,91.07995220000157,91.38101959996857,91.87500389997149,92.23595319996821,92.4379348999937,92.653867099958,2.158151900046505,0.30106739996699616,0.4939843000029214,0.36094929999671876,0.20198170002549887,0.2159321999642998
154,18,0.0,2,False,0.0,None,right,False,2,1,0,enc,0,0,0,[],[],6,6,1 4 4 1 2 3,4,0.0,0.0,0.0,0.0,0.0,0.0,0,0.0,0.0,0.0,0.0,0.0
155,19,5.3588849999941885,2,True,0.5,acc,right,True,2,1,5,ret,1,5,0,"['4', '2', '1', '4', '4', '1']","[102.4230019999668, 104.10586159996456, 104.92894499999238, 106.21015839994652, 106.43887029995676, 107.78188699996099]",6,6,# # # # # #,None,102.4230019999668,104.10586159996456,104.92894499999238,106.21015839994652,106.43887029995676,107.78188699996099,3.269134900008794,1.6828595999977551,0.8230834000278264,1.2812133999541402,0.22871190001023933,1.3430167000042275
156,20,0.0,2,False,0.0,None,right,False,2,1,0,enc,0,0,0,[],[],6,6,2 1 2 3 4 4,4,0.0,0.0,0.0,0.0,0.0,0.0,0,0.0,0.0,0.0,0.0,0.0
157,21,2.2683266999665648,2,True,0.5,acc,right,False,2,1,6,ret,1,10,0,"['4', '4', '3', '2', '1', '2']","[116.53692029998638, 116.76287469995441, 117.06292929995107, 118.31401959998766, 118.56190269999206, 118.80524699995294]",6,6,# # # # # #,None,116.53692029998638,116.76287469995441,117.06292929995107,118.31401959998766,118.56190269999206,118.80524699995294,2.2550333000253886,0.2259543999680318,0.3000545999966562,1.2510903000365943,0.24788310000440106,0.24334429996088147
158,22,0.0,3,False,0.0,None,right,False,2,1,0,enc,0,0,0,[],[],6,6,3 1 3 4 2 3,6,0.0,0.0,0.0,0.0,0.0,0.0,0,0.0,0.0,0.0,0.0,0.0
159,23,5.549842699954752,3,True,0.5,acc,right,True,2,1,4,ret,1,4,0,"['4', '2', '4', '1', '1', '3']","[128.21897059999174, 131.69089349999558, 132.13499009999214, 133.19586569996318, 133.38784119999036, 133.7688132999465]",6,6,# # # # # #,None,128.21897059999174,131.69089349999558,132.13499009999214,133.19586569996318,133.38784119999036,133.7688132999465,2.913723600038793,3.4719229000038467,0.4440965999965556,1.060875599971041,0.19197550002718344,0.380972099956125
160,0,0.0,2,False,0.0,None,right,False,2,1,0,enc,0,0,1,[],[],7,6,2 4 4 2 1 3,4,0.0,0.0,0.0,0.0,0.0,0.0,0,0.0,0.0,0.0,0.0,0.0
161,1,20.08193330001086,2,True,0.5,acc,right,True,2,1,4,ret,1,4,1,"['m', '4', '4', '2', '4', '3']","[-6.095520600036252, 9.98356550000608, 10.690465499996208, 12.228587999998126, 13.68457280000439, 13.986412699974608]",7,6,# # # # # #,None,-6.095520600036252,9.98356550000608,10.690465499996208,12.228587999998126,13.68457280000439,13.986412699974608,NaN,16.079086100042332,0.706899999990128,1.5381225000019185,1.455984800006263,0.30183989997021854
162,2,0.0,3,False,0.0,None,right,False,2,1,0,enc,0,0,1,[],[],7,6,2 4 3 1 4 4,6,0.0,0.0,0.0,0.0,0.0,0.0,0,0.0,0.0,0.0,0.0,0.0
163,3,1.4280154000152834,3,True,0.5,acc,right,False,2,1,6,ret,1,10,1,"['2', '4', '3', '1', '4', '4']","[20.30157519999193, 20.593480499985162, 20.869623599981423, 21.173553599976003, 21.491632899967954, 21.729590600007214]",7,6,# # # # # #,None,20.30157519999193,20.593480499985162,20.869623599981423,21.173553599976003,21.491632899967954,21.729590600007214,-0.1848374999826774,0.2919052999932319,0.2761430999962613,0.3039299999945797,0.3180792999919504,0.2379577000392601
164,4,0.0,3,False,0.0,None,right,False,2,1,0,enc,0,0,1,[],[],7,6,3 3 4 4 4 1,6,0.0,0.0,0.0,0.0,0.0,0.0,0,0.0,0.0,0.0,0.0,0.0
165,5,1.5099732000380754,3,True,0.5,acc,right,False,2,1,6,ret,1,10,1,"['3', '3', '4', '4', '4', '1']","[27.92660219996469, 28.13459629996214, 28.37564179999754, 29.027585999981966, 29.211579599999823, 29.436575400002766]",7,6,# # # # # #,None,27.92660219996469,28.13459629996214,28.37564179999754,29.027585999981966,29.211579599999823,29.436575400002766,-0.3029884000425227,0.20799409999744967,0.2410455000353977,0.6519441999844275,0.1839936000178568,0.22499580000294372
166,6,0.0,2,False,0.0,None,right,False,2,1,0,enc,0,0,1,[],[],7,6,4 1 2 3 3 2,4,0.0,0.0,0.0,0.0,0.0,0.0,0,0.0,0.0,0.0,0.0,0.0
167,7,1.4049097999813966,2,True,0.5,acc,right,False,2,1,6,ret,1,10,1,"['4', '1', '2', '3', '3', '2']","[38.011485799972434, 38.331570799986366, 38.741543099982664, 38.98655749997124, 39.209565499972086, 39.41639559995383]",7,6,# # # # # #,None,38.011485799972434,38.331570799986366,38.741543099982664,38.98655749997124,39.209565499972086,39.41639559995383,2.074910399969667,0.3200850000139326,0.4099722999962978,0.24501439998857677,0.22300800000084564,0.20683009998174384
168,8,0.0,3,False,0.0,None,right,False,2,1,0,enc,0,0,0,[],[],7,6,3 4 2 1 2 2,6,0.0,0.0,0.0,0.0,0.0,0.0,0,0.0,0.0,0.0,0.0,0.0
169,9,4.831006799999159,3,True,0.5,acc,right,True,2,1,5,ret,1,5,0,"['2', '2', '1', '2', '4', '2']","[45.446551500004716, 45.61571829998866, 45.77153729996644, 49.23958829999901, 49.57867339998484, 50.277558300003875]",7,6,# # # # # #,None,45.446551500004716,45.61571829998866,45.77153729996644,49.23958829999901,49.57867339998484,50.277558300003875,-0.469844099949114,0.16916679998394102,0.15581899997778237,3.468051000032574,0.33908509998582304,0.6988849000190385
170,10,0.0,2,False,0.0,None,right,False,2,1,0,enc,0,0,0,[],[],7,6,4 4 3 4 3 3,4,0.0,0.0,0.0,0.0,0.0,0.0,0,0.0,0.0,0.0,0.0,0.0
171,11,3.3851024999748915,2,True,0.5,acc,right,False,2,1,6,ret,1,10,0,"['3', '3', '4', '3', '4', '4']","[60.06638939998811, 60.30577789997915, 60.695437099959236, 62.42669960000785, 63.252576800005045, 63.451491899963]",7,6,# # # # # #,None,60.06638939998811,60.30577789997915,60.695437099959236,62.42669960000785,63.252576800005045,63.451491899963,3.288831099984236,0.23938849999103695,0.3896591999800876,1.731262500048615,0.8258771999971941,0.19891509995795786
172,12,0.0,2,False,0.0,None,right,False,2,1,0,enc,0,0,0,[],[],7,6,4 1 4 1 4 2,4,0.0,0.0,0.0,0.0,0.0,0.0,0,0.0,0.0,0.0,0.0,0.0
173,13,3.386536000005435,2,True,0.5,acc,right,True,2,1,4,ret,1,4,0,"['2', '4', '1', '4', '4', '1']","[72.54659899999388, 72.80962129996624, 73.10038199997507, 74.86253469996154, 75.70437399996445, 75.93313499999931]",7,6,# # # # # #,None,72.54659899999388,72.80962129996624,73.10038199997507,74.86253469996154,75.70437399996445,75.93313499999931,2.595107100030873,0.2630222999723628,0.2907607000088319,1.7621526999864727,0.8418393000029027,0.228761000034865
174,14,0.0,3,False,0.0,None,right,False,2,1,0,enc,0,0,1,[],[],7,6,2 1 4 3 1 2,6,0.0,0.0,0.0,0.0,0.0,0.0,0,0.0,0.0,0.0,0.0,0.0
175,15,1.8598397999885488,3,True,0.5,acc,right,False,2,1,6,ret,1,10,1,"['2', '1', '4', '3', '1', '2']","[82.31765059998725, 82.52988099999493, 82.80244619998848, 83.25351769995177, 84.00762679998297, 84.1774903999758]",7,6,# # # # # #,None,82.31765059998725,82.52988099999493,82.80244619998848,83.25351769995177,84.00762679998297,84.1774903999758,-0.11548440001206473,0.21223040000768378,0.2725651999935508,0.451071499963291,0.7541091000312008,0.16986359999282286
176,16,0.0,2,False,0.0,None,right,False,2,1,0,enc,0,0,0,[],[],7,6,4 4 4 2 4 2,4,0.0,0.0,0.0,0.0,0.0,0.0,0,0.0,0.0,0.0,0.0,0.0
177,17,1.2869400000199676,2,True,0.5,acc,right,False,2,1,6,ret,1,10,0,"['2', '4', '2', '4', '4', '4']","[93.41254699998535, 93.73555990000023, 94.08242479996989, 94.30803709995234, 94.50645689998055, 94.69948700000532]",7,6,# # # # # #,None,93.41254699998535,93.73555990000023,94.08242479996989,94.30803709995234,94.50645689998055,94.69948700000532,2.735056600009557,0.3230129000148736,0.34686489996965975,0.22561229998245835,0.19841980002820492,0.19303010002477095
178,18,0.0,3,False,0.0,None,right,False,2,1,0,enc,0,0,0,[],[],7,6,3 1 4 4 2 4,6,0.0,0.0,0.0,0.0,0.0,0.0,0,0.0,0.0,0.0,0.0,0.0
179,19,5.485995100054423,3,True,0.5,acc,right,False,2,1,6,ret,1,10,0,"['4', '2', '4', '4', '1', '3']","[101.72658689995296, 102.13050299999304, 102.4515027999878, 104.27550039999187, 106.88298090000171, 107.21258200000739]",7,6,# # # # # #,None,101.72658689995296,102.13050299999304,102.4515027999878,104.27550039999187,106.88298090000171,107.21258200000739,0.5270998999476433,0.40391610004007816,0.3209997999947518,1.823997600004077,2.607480500009842,0.3296011000056751
180,20,0.0,3,False,0.0,None,right,False,2,1,0,enc,0,0,0,[],[],7,6,1 4 2 2 3 4,6,0.0,0.0,0.0,0.0,0.0,0.0,0,0.0,0.0,0.0,0.0,0.0
181,21,4.6971158999949685,3,True,0.5,acc,right,True,2,1,5,ret,1,5,0,"['4', '3', '2', '4', '4', '1']","[114.49649599997792, 114.96747029997641, 115.18457029998535, 118.1195400999859, 118.32949629996438, 119.1936118999729]",7,6,# # # # # #,None,114.49649599997792,114.96747029997641,115.18457029998535,118.1195400999859,118.32949629996438,119.1936118999729,0.7839139999705367,0.4709742999984883,0.2171000000089407,2.9349698000005446,0.20995619997847825,0.8641156000085175
182,22,0.0,2,False,0.0,None,right,False,2,1,0,enc,0,0,1,[],[],7,6,1 1 2 1 1 3,4,0.0,0.0,0.0,0.0,0.0,0.0,0,0.0,0.0,0.0,0.0,0.0
183,23,1.0749877999769524,2,True,0.5,acc,right,False,2,1,6,ret,1,10,1,"['1', '1', '2', '1', '1', '3']","[127.54347979999147, 127.70945689996006, 127.91946000000462, 128.22555909998482, 128.392409699969, 128.61846759996843]",7,6,# # # # # #,None,127.54347979999147,127.70945689996006,127.91946000000462,128.22555909998482,128.392409699969,128.61846759996843,1.8498679000185803,0.16597709996858612,0.2100031000445597,0.30609909998020157,0.16685059998417273,0.22605789999943227
184,0,0.0,2,False,0.0,None,right,False,2,1,0,enc,0,0,1,[],[],8,6,4 2 3 2 2 2,4,0.0,0.0,0.0,0.0,0.0,0.0,0,0.0,0.0,0.0,0.0,0.0
185,1,1.5520701999776063,2,True,0.5,acc,right,False,2,1,6,ret,1,10,1,"['4', '2', '3', '2', '2', '2']","[6.604017500008922, 6.967180899984669, 7.353163500025403, 7.58800180000253, 7.971081800002139, 8.156087699986529]",8,6,# # # # # #,None,6.604017500008922,6.967180899984669,7.353163500025403,7.58800180000253,7.971081800002139,8.156087699986529,NaN,0.36316339997574687,0.3859826000407338,0.23483829997712746,0.38307999999960884,0.18500589998438954
186,2,0.0,2,False,0.0,None,right,False,2,1,0,enc,0,0,1,[],[],8,6,1 1 1 3 1 4,4,0.0,0.0,0.0,0.0,0.0,0.0,0,0.0,0.0,0.0,0.0,0.0
187,3,1.1461228000116537,2,True,0.5,acc,right,False,2,1,6,ret,1,10,1,"['1', '1', '1', '3', '1', '4']","[16.48712110001361, 16.666968400008045, 16.969204400025774, 17.187132699997164, 17.395155299978796, 17.633243900025263]",8,6,# # # # # #,None,16.48712110001361,16.666968400008045,16.969204400025774,17.187132699997164,17.395155299978796,17.633243900025263,1.8310334000270814,0.17984729999443516,0.30223600001772866,0.21792829997139052,0.20802259998163208,0.23808860004646704
188,4,0.0,2,False,0.0,None,right,False,2,1,0,enc,0,0,0,[],[],8,6,2 1 2 1 3 4,4,0.0,0.0,0.0,0.0,0.0,0.0,0,0.0,0.0,0.0,0.0,0.0
189,5,1.3692274000495672,2,True,0.5,acc,right,False,2,1,6,ret,1,10,0,"['4', '3', '1', '2', '1', '2']","[25.68699249997735, 25.949173000000883, 26.418166399991605, 26.560044199984986, 26.887046599993482, 27.056219900026917]",8,6,# # # # # #,None,25.68699249997735,25.949173000000883,26.418166399991605,26.560044199984986,26.887046599993482,27.056219900026917,1.5537485999520868,0.26218050002353266,0.46899339999072254,0.1418777999933809,0.3270024000084959,0.16917330003343523
190,6,0.0,2,False,0.0,None,right,False,2,1,0,enc,0,0,1,[],[],8,6,1 3 1 4 2 3,4,0.0,0.0,0.0,0.0,0.0,0.0,0,0.0,0.0,0.0,0.0,0.0
191,7,2.1329435000079684,2,True,0.5,acc,right,False,2,1,6,ret,1,10,1,"['1', '3', '1', '4', '2', '3']","[35.68115770001896, 35.93524109997088, 36.23110580001958, 36.56811310001649, 37.500073899980634, 37.814101200026926]",8,6,# # # # # #,None,35.68115770001896,35.93524109997088,36.23110580001958,36.56811310001649,37.500073899980634,37.814101200026926,2.12493779999204,0.25408339995192364,0.29586470004869625,0.3370072999969125,0.9319607999641448,0.3140273000462912
192,8,0.0,3,False,0.0,None,right,False,2,1,0,enc,0,0,1,[],[],8,6,1 4 3 3 2 2,6,0.0,0.0,0.0,0.0,0.0,0.0,0,0.0,0.0,0.0,0.0,0.0
193,9,1.6121408000472002,3,True,0.5,acc,right,False,2,1,6,ret,1,10,1,"['1', '4', '3', '3', '2', '2']","[44.22693409997737, 44.60608769999817, 44.96813990001101, 45.31609119998757, 45.63411280000582, 45.83907490002457]",8,6,# # # # # #,None,44.22693409997737,44.60608769999817,44.96813990001101,45.31609119998757,45.63411280000582,45.83907490002457,-0.0871671000495553,0.3791536000207998,0.36205220001284033,0.3479512999765575,0.3180216000182554,0.20496210001874715
194,10,0.0,2,False,0.0,None,right,False,2,1,0,enc,0,0,0,[],[],8,6,4 3 3 4 4 1,4,0.0,0.0,0.0,0.0,0.0,0.0,0,0.0,0.0,0.0,0.0,0.0
195,11,4.038902100000996,2,True,0.5,acc,right,True,2,1,4,ret,1,4,0,"['1', '4', '4', '3', '4', '3']","[55.54311789997155, 55.80000599997584, 57.62809190002736, 57.93491070001619, 59.30409679998411, 59.582019999972545]",8,6,# # # # # #,None,55.54311789997155,55.80000599997584,57.62809190002736,57.93491070001619,59.30409679998411,59.582019999972545,3.204042999946978,0.2568881000042893,1.8280859000515193,0.3068187999888323,1.3691860999679193,0.27792319998843595
196,12,0.0,2,False,0.0,None,right,False,2,1,0,enc,0,0,0,[],[],8,6,3 1 3 2 4 2,4,0.0,0.0,0.0,0.0,0.0,0.0,0,0.0,0.0,0.0,0.0,0.0
197,13,6.606743299984373,2,True,0.5,acc,right,False,2,1,6,ret,1,10,0,"['2', '4', '2', '3', '1', '3']","[68.83831810002448, 69.09104799997294, 72.30605660000583, 72.54603560001124, 75.19898320001084, 75.44506140000885]",8,6,# # # # # #,None,68.83831810002448,69.09104799997294,72.30605660000583,72.54603560001124,75.19898320001084,75.44506140000885,2.7562981000519358,0.25272989994846284,3.2150086000328884,0.2399790000054054,2.6529475999996066,0.24607819999800995
198,14,0.0,3,False,0.0,None,right,False,2,1,0,enc,0,0,1,[],[],8,6,1 3 2 3 3 3,6,0.0,0.0,0.0,0.0,0.0,0.0,0,0.0,0.0,0.0,0.0,0.0
199,15,1.9760501999990083,3,True,0.5,acc,right,False,2,1,6,ret,1,10,1,"['1', '3', '2', '3', '3', '3']","[82.09800659999019, 82.36418430000776, 82.65602840000065, 82.89798770000925, 83.8909659999772, 84.0740567999892]",8,6,# # # # # #,None,82.09800659999019,82.36418430000776,82.65602840000065,82.89798770000925,83.8909659999772,84.0740567999892,0.15294519998133183,0.2661777000175789,0.2918440999928862,0.24195930000860244,0.9929782999679446,0.18309080001199618
200,16,0.0,3,False,0.0,None,right,False,2,1,0,enc,0,0,1,[],[],8,6,4 2 4 4 2 4,6,0.0,0.0,0.0,0.0,0.0,0.0,0,0.0,0.0,0.0,0.0,0.0
201,17,1.6749577000155114,3,True,0.5,acc,right,False,2,1,6,ret,1,10,1,"['4', '2', '4', '4', '2', '4']","[90.54807999997865, 90.89806089998456, 91.2290499000228, 91.58200499997474, 91.93705339997541, 92.22303769999417]",8,6,# # # # # #,None,90.54807999997865,90.89806089998456,91.2290499000228,91.58200499997474,91.93705339997541,92.22303769999417,-0.02597680001053959,0.3499809000059031,0.33098900003824383,0.3529550999519415,0.35504840000066906,0.28598430001875386
202,18,0.0,3,False,0.0,None,right,False,2,1,0,enc,0,0,0,[],[],8,6,1 2 2 3 1 1,6,0.0,0.0,0.0,0.0,0.0,0.0,0,0.0,0.0,0.0,0.0,0.0
203,19,2.438848999969196,3,True,0.5,acc,right,False,2,1,6,ret,1,10,0,"['1', '1', '3', '2', '2', '1']","[98.90016610000748, 99.09192189999158, 99.91699739999603, 100.11794720002217, 101.1688998999889, 101.33901509997668]",8,6,# # # # # #,None,98.90016610000748,99.09192189999158,99.91699739999603,100.11794720002217,101.1688998999889,101.33901509997668,0.17712840001331642,0.19175579998409376,0.8250755000044592,0.20094980002613738,1.0509526999667287,0.17011519998777658
204,20,0.0,3,False,0.0,None,right,False,2,1,0,enc,0,0,0,[],[],8,6,2 3 1 1 3 4,6,0.0,0.0,0.0,0.0,0.0,0.0,0,0.0,0.0,0.0,0.0,0.0
205,21,3.4109402000322007,3,True,0.5,acc,right,False,2,1,6,ret,1,10,0,"['4', '3', '1', '1', '3', '2']","[109.39804609998828, 109.63700210000388, 110.75602480000816, 110.94213729997864, 112.31595969997579, 112.80898630002048]",8,6,# # # # # #,None,109.39804609998828,109.63700210000388,110.75602480000816,110.94213729997864,112.31595969997579,112.80898630002048,1.5590310000116006,0.23895600001560524,1.1190227000042796,0.18611249997047707,1.3738223999971524,0.49302660004468635
206,22,0.0,3,False,0.0,None,right,False,2,1,0,enc,0,0,0,[],[],8,6,4 3 2 2 1 3,6,0.0,0.0,0.0,0.0,0.0,0.0,0,0.0,0.0,0.0,0.0,0.0
207,23,4.584171499998774,3,True,0.5,acc,right,True,2,1,3,ret,1,3,0,"['3', '1', '4', '4', '3', '1']","[121.01804779999657, 121.79797499999404, 122.6621210000012, 122.91700070002116, 125.28996169997845, 125.60221929999534]",8,6,# # # # # #,None,121.01804779999657,121.79797499999404,122.6621210000012,122.91700070002116,125.28996169997845,125.60221929999534,1.7090614999760874,0.7799271999974735,0.8641460000071675,0.25487970001995564,2.372960999957286,0.31225760001689196
