,Tn,MT,chunk,display_trial_feedback,feedback_dur,feedback_type,hand,is_error,item_dur,iti_dur,number_correct,phase,phase_type,points,recall_dir,response,response_time,run_number,seq_length,seq_str,trial_dur,P1,P2,P3,P4,P5,P6,IPI_0,IPI_1,IPI_2,IPI_3,IPI_4,IPI_5
0,0,0.0,3,False,0.0,None,right,False,2,1,0,enc,0,0,1,[],[],1,6,2 2 2 4 4 3,6,0.0,0.0,0.0,0.0,0.0,0.0,0,0.0,0.0,0.0,0.0,0.0
1,1,15.294683899963276,3,True,0.5,acc,right,True,2,1,5,ret,1,5,1,"['2', '2', '3', '4', '4', '3']","[2.031934199971147, 11.774896999937482, 15.17472559993621, 16.934746799990535, 17.29473910003435, 17.32661809993442]",1,6,# # # # # #,None,2.031934199971147,11.774896999937482,15.17472559993621,16.934746799990535,17.29473910003435,17.32661809993442,-4.468065800028853,9.742962799966335,3.3998285999987274,1.7600212000543252,0.3599923000438139,0.03187899990007281
2,2,0.0,3,False,0.0,None,right,False,2,1,0,enc,0,0,1,[],[],1,6,1 3 1 3 1 2,6,0.0,0.0,0.0,0.0,0.0,0.0,0,0.0,0.0,0.0,0.0,0.0
3,3,1.8881319999927653,3,True,0.5,acc,right,False,2,1,6,ret,1,10,1,"['1', '3', '1', '3', '1', '2']","[23.4227155999979, 23.718815400032327, 24.070666100014932, 24.72669839998707, 25.038781499955803, 25.310847599990666]",1,6,# # # # # #,None,23.4227155999979,23.718815400032327,24.070666100014932,24.72669839998707,25.038781499955803,25.310847599990666,-0.40390249993652105,0.29609980003442615,0.3518506999826059,0.6560322999721393,0.3120830999687314,0.27206610003486276
4,4,0.0,3,False,0.0,None,right,False,2,1,0,enc,0,0,0,[],[],1,6,4 1 4 3 4 3,6,0.0,0.0,0.0,0.0,0.0,0.0,0,0.0,0.0,0.0,0.0,0.0
5,5,13.19229749997612,3,True,0.5,acc,right,True,2,1,3,ret,1,3,0,"['4', '1', '4', '4', '1', '4']","[31.670665999990888, 32.054680999950506, 42.3986428999342, 43.86265699996147, 44.57469989999663, 44.86296349996701]",1,6,# # # # # #,None,31.670665999990888,32.054680999950506,42.3986428999342,43.86265699996147,44.57469989999663,44.86296349996701,-0.14018159999977797,0.38401499995961785,10.343961899983697,1.4640141000272706,0.7120429000351578,0.288263599970378
6,6,0.0,2,False,0.0,None,right,False,2,1,0,enc,0,0,1,[],[],1,6,4 3 4 1 4 4,4,0.0,0.0,0.0,0.0,0.0,0.0,0,0.0,0.0,0.0,0.0,0.0
7,7,7.336101699969731,2,True,0.5,acc,right,True,2,1,3,ret,1,3,1,"['3', '4', '1', '1', '4', '4']","[57.83070749999024, 58.366577000007965, 62.05480409995653, 63.40668659994844, 64.99064209999051, 65.16680919995997]",1,6,# # # # # #,None,57.83070749999024,58.366577000007965,62.05480409995653,63.40668659994844,64.99064209999051,65.16680919995997,6.467744000023231,0.5358695000177249,3.6882270999485627,1.3518824999919161,1.583955500042066,0.17616709996946156
8,8,0.0,2,False,0.0,None,right,False,2,1,0,enc,0,0,0,[],[],1,6,4 1 3 3 1 4,4,0.0,0.0,0.0,0.0,0.0,0.0,0,0.0,0.0,0.0,0.0,0.0
9,9,3.3839963000500566,2,True,0.5,acc,right,False,2,1,6,ret,1,10,0,"['4', '1', '3', '3', '1', '4']","[74.23064249998424, 74.63077980000526, 75.67065189999994, 76.0945887999842, 77.47859069996048, 77.6146388000343]",1,6,# # # # # #,None,74.23064249998424,74.63077980000526,75.67065189999994,76.0945887999842,77.47859069996048,77.6146388000343,2.563833300024271,0.4001373000210151,1.0398720999946818,0.42393689998425543,1.3840018999762833,0.13604810007382184
10,10,0.0,2,False,0.0,None,right,False,2,1,0,enc,0,0,0,[],[],1,6,1 3 4 2 2 2,4,0.0,0.0,0.0,0.0,0.0,0.0,0,0.0,0.0,0.0,0.0,0.0
11,11,3.920187499956228,2,True,0.5,acc,right,True,2,1,4,ret,1,4,0,"['2', '2', '4', '2', '3', '1']","[86.18256520002615, 86.46261529996991, 87.62267760001123, 87.93464989995118, 89.93467620003503, 90.10275269998237]",1,6,# # # # # #,None,86.18256520002615,86.46261529996991,87.62267760001123,87.93464989995118,89.93467620003503,90.10275269998237,2.0679263999918476,0.2800500999437645,1.160062300041318,0.3119722999399528,2.000026300083846,0.16807649994734675
12,12,0.0,3,False,0.0,None,right,False,2,1,0,enc,0,0,0,[],[],1,6,4 1 1 1 4 3,6,0.0,0.0,0.0,0.0,0.0,0.0,0,0.0,0.0,0.0,0.0,0.0
13,13,5.111882999888621,3,True,0.5,acc,right,True,2,1,2,ret,1,2,0,"['4', '4', '3', '3', '1', '1']","[98.79064310004469, 99.87060539994854, 100.63860489998478, 102.81463719997555, 103.47066899994388, 103.90252609993331]",1,6,# # # # # #,None,98.79064310004469,99.87060539994854,100.63860489998478,102.81463719997555,103.47066899994388,103.90252609993331,2.187890400062315,1.0799622999038547,0.7679995000362396,2.1760322999907658,0.656031799968332,0.4318570999894291
14,14,0.0,2,False,0.0,None,right,False,2,1,0,enc,0,0,1,[],[],1,6,1 2 3 4 3 1,4,0.0,0.0,0.0,0.0,0.0,0.0,0,0.0,0.0,0.0,0.0,0.0
15,15,3.8644405000377446,2,True,0.5,acc,right,True,2,1,4,ret,1,4,1,"['1', '2', '2', '2', '3', '1']","[112.63060989999212, 112.76659799995832, 113.85462180001196, 114.63060509995557, 116.37452009995468, 116.49505040002987]",1,6,# # # # # #,None,112.63060989999212,112.76659799995832,113.85462180001196,114.63060509995557,116.37452009995468,116.49505040002987,2.228083800058812,0.1359880999661982,1.0880238000536337,0.7759832999436185,1.743914999999106,0.12053030007518828
16,0,0.0,3,False,0.0,None,right,False,2,1,0,enc,0,0,1,[],[],1,6,4 2 2 1 1 2,6,0.0,0.0,0.0,0.0,0.0,0.0,0,0.0,0.0,0.0,0.0,0.0
17,1,2.2240979000926018,3,True,0.5,acc,right,True,2,1,5,ret,1,5,1,"['4', '2', '2', '1', '2', '2']","[4.651208499912173, 5.315157199976966, 5.659163199947216, 6.0432123999344185, 6.627110600005835, 6.875306400004774]",1,6,# # # # # #,None,4.651208499912173,5.315157199976966,5.659163199947216,6.0432123999344185,6.627110600005835,6.875306400004774,NaN,0.6639487000647932,0.34400599997024983,0.3840491999872029,0.5838982000714168,0.24819579999893904
18,2,0.0,3,False,0.0,None,right,False,2,1,0,enc,0,0,1,[],[],1,6,3 3 2 2 3 3,6,0.0,0.0,0.0,0.0,0.0,0.0,0,0.0,0.0,0.0,0.0,0.0
19,3,1.9039345000637693,3,True,0.5,acc,right,False,2,1,6,ret,1,10,1,"['3', '3', '2', '2', '3', '3']","[13.59523629990872, 13.8677589999279, 14.147102099959739, 14.859180399915203, 15.283182099927217, 15.49917079997249]",1,6,# # # # # #,None,13.59523629990872,13.8677589999279,14.147102099959739,14.859180399915203,15.283182099927217,15.49917079997249,0.21992989990394562,0.2725227000191808,0.2793431000318378,0.7120782999554649,0.4240017000120133,0.2159887000452727
20,4,0.0,2,False,0.0,None,right,False,2,1,0,enc,0,0,0,[],[],1,6,1 4 4 2 2 1,4,0.0,0.0,0.0,0.0,0.0,0.0,0,0.0,0.0,0.0,0.0,0.0
21,5,2.3039522999897595,2,True,0.5,acc,right,True,2,1,5,ret,1,5,0,"['1', '2', '2', '4', '4', '2']","[24.507192399934866, 24.787174199940637, 25.5071111000143, 25.795210400014184, 26.499114700010978, 26.811144699924625]",1,6,# # # # # #,None,24.507192399934866,24.787174199940637,25.5071111000143,25.795210400014184,26.499114700010978,26.811144699924625,2.508021599962376,0.2799818000057712,0.7199369000736624,0.28809929999988526,0.7039042999967933,0.31202999991364777
22,6,0.0,3,False,0.0,None,right,False,2,1,0,enc,0,0,0,[],[],1,6,2 3 3 2 4 1,6,0.0,0.0,0.0,0.0,0.0,0.0,0,0.0,0.0,0.0,0.0,0.0
23,7,4.776017800089903,3,True,0.5,acc,right,True,2,1,1,ret,1,1,0,"['1', '2', '3', '4', '1', '1']","[33.10717879992444, 33.5564400999574, 34.203480599913746, 37.07515129994135, 37.57107999990694, 37.883196600014344]",1,6,# # # # # #,None,33.10717879992444,33.5564400999574,34.203480599913746,37.07515129994135,37.57107999990694,37.883196600014344,-0.20396590000018477,0.4492613000329584,0.647040499956347,2.8716707000276074,0.49592869996558875,0.3121166001074016
24,8,0.0,2,False,0.0,None,right,False,2,1,0,enc,0,0,0,[],[],1,6,4 3 2 1 3 4,4,0.0,0.0,0.0,0.0,0.0,0.0,0,0.0,0.0,0.0,0.0,0.0
25,9,3.0239708999870345,2,True,0.5,acc,right,False,2,1,6,ret,1,10,0,"['4', '3', '1', '2', '3', '4']","[47.419177499949, 47.475792499957606, 48.827145599992946, 48.92299390002154, 50.29912239999976, 50.443148399936035]",1,6,# # # # # #,None,47.419177499949,47.475792499957606,48.827145599992946,48.92299390002154,50.29912239999976,50.443148399936035,3.035980899934657,0.05661500000860542,1.3513531000353396,0.09584830002859235,1.376128499978222,0.14402599993627518
26,10,0.0,2,False,0.0,None,right,False,2,1,0,enc,0,0,1,[],[],1,6,4 3 3 1 1 2,4,0.0,0.0,0.0,0.0,0.0,0.0,0,0.0,0.0,0.0,0.0,0.0
27,11,2.2960378000279893,2,True,0.5,acc,right,False,2,1,6,ret,1,10,1,"['4', '3', '3', '1', '1', '2']","[59.67511439998634, 60.21245649992488, 60.76317809999455, 61.24304869992193, 61.62714120000601, 61.97115220001433]",1,6,# # # # # #,None,59.67511439998634,60.21245649992488,60.76317809999455,61.24304869992193,61.62714120000601,61.97115220001433,2.7319660000503063,0.5373420999385417,0.5507216000696644,0.4798705999273807,0.3840925000840798,0.3440110000083223
28,12,0.0,3,False,0.0,None,right,False,2,1,0,enc,0,0,0,[],[],1,6,2 3 4 2 2 1,6,0.0,0.0,0.0,0.0,0.0,0.0,0,0.0,0.0,0.0,0.0,0.0
29,13,2.1839804999763146,3,True,0.5,acc,right,True,2,1,4,ret,1,4,0,"['1', '2', '2', '4', '2', '1']","[68.30716209998354, 68.5632295999676, 68.78711259993725, 69.3151465000119, 69.95510259992443, 70.49114259995986]",1,6,# # # # # #,None,68.30716209998354,68.5632295999676,68.78711259993725,69.3151465000119,69.95510259992443,70.49114259995986,-0.1639901000307873,0.25606749998405576,0.22388299996964633,0.5280339000746608,0.6399560999125242,0.5360400000354275
30,14,0.0,2,False,0.0,None,right,False,2,1,0,enc,0,0,1,[],[],1,6,4 2 3 4 2 1,4,0.0,0.0,0.0,0.0,0.0,0.0,0,0.0,0.0,0.0,0.0,0.0
31,15,4.343991400091909,2,True,0.5,acc,right,False,2,1,6,ret,1,10,1,"['4', '2', '3', '4', '2', '1']","[79.34714929992333, 79.85261179995723, 81.89912189997267, 82.66822059999686, 83.29112800001167, 83.69114070001524]",1,6,# # # # # #,None,79.34714929992333,79.85261179995723,81.89912189997267,82.66822059999686,83.29112800001167,83.69114070001524,2.356006699963473,0.5054625000339001,2.046510100015439,0.7690987000241876,0.6229074000148103,0.4000127000035718
32,16,0.0,2,False,0.0,None,right,False,2,1,0,enc,0,0,1,[],[],1,6,1 4 1 3 2 4,4,0.0,0.0,0.0,0.0,0.0,0.0,0,0.0,0.0,0.0,0.0,0.0
33,17,3.0239012999227275,2,True,0.5,acc,right,True,2,1,1,ret,1,1,1,"['4', '2', '2', '2', '2', '2']","[92.02719900000375, 93.42711519997101, 94.11511709995102, 94.52329969999846, 94.65906049998011, 95.05110029992647]",1,6,# # # # # #,None,92.02719900000375,93.42711519997101,94.11511709995102,94.52329969999846,94.65906049998011,95.05110029992647,1.8360582999885082,1.3999161999672651,0.6880018999800086,0.40818260004743934,0.1357607999816537,0.3920397999463603
34,18,0.0,3,False,0.0,None,right,False,2,1,0,enc,0,0,0,[],[],1,6,2 3 3 3 3 4,6,0.0,0.0,0.0,0.0,0.0,0.0,0,0.0,0.0,0.0,0.0,0.0
35,19,7.6737043999601156,3,True,0.5,acc,right,True,2,1,5,ret,1,5,0,"['2', '3', '3', '3', '3', '2']","[96.60142339998856, 102.73908470000606, 102.98713439994026, 103.32301389996428, 103.90900300000794, 104.27512779994868]",1,6,# # # # # #,None,96.60142339998856,102.73908470000606,102.98713439994026,103.32301389996428,103.90900300000794,104.27512779994868,-4.949676899937913,6.137661300017498,0.24804969993419945,0.33587950002402067,0.5859891000436619,0.3661247999407351
36,20,0.0,3,False,0.0,None,right,False,2,1,0,enc,0,0,1,[],[],1,6,1 1 3 2 2 4,6,0.0,0.0,0.0,0.0,0.0,0.0,0,0.0,0.0,0.0,0.0,0.0
37,21,2.4464315000223,3,True,0.5,acc,right,True,2,1,4,ret,1,4,1,"['1', '2', '2', '2', '2', '4']","[110.87664039991796, 111.16306229995098, 111.38708989997394, 112.59506839991082, 112.92310749995522, 113.32307189994026]",1,6,# # # # # #,None,110.87664039991796,111.16306229995098,111.38708989997394,112.59506839991082,112.92310749995522,113.32307189994026,0.10151259996928275,0.2864219000330195,0.22402760002296418,1.2079784999368712,0.32803910004440695,0.39996439998503774
38,22,0.0,2,False,0.0,None,right,False,2,1,0,enc,0,0,0,[],[],1,6,4 1 1 1 4 4,4,0.0,0.0,0.0,0.0,0.0,0.0,0,0.0,0.0,0.0,0.0,0.0
39,23,2.1679188000271097,2,True,0.5,acc,right,False,2,1,6,ret,1,10,0,"['4', '4', '1', '1', '1', '4']","[121.4190721999621, 121.68295039993245, 122.11519099993166, 122.43556349992286, 123.08305919996928, 123.58699099998921]",1,6,# # # # # #,None,121.4190721999621,121.68295039993245,122.11519099993166,122.43556349992286,123.08305919996928,123.58699099998921,1.5960003000218421,0.26387819997034967,0.4322405999992043,0.3203724999912083,0.6474957000464201,0.5039318000199273
40,0,0.0,3,False,0.0,None,right,False,2,1,0,enc,0,0,1,[],[],2,6,3 2 2 3 2 3,6,0.0,0.0,0.0,0.0,0.0,0.0,0,0.0,0.0,0.0,0.0,0.0
41,1,1.5200880999909714,3,True,0.5,acc,right,False,2,1,6,ret,1,10,1,"['3', '2', '2', '3', '2', '3']","[5.452487000031397, 5.724633500096388, 6.004722799989395, 6.452606300008483, 6.700674600084312, 6.972575100022368]",2,6,# # # # # #,None,5.452487000031397,5.724633500096388,6.004722799989395,6.452606300008483,6.700674600084312,6.972575100022368,NaN,0.2721465000649914,0.2800892998930067,0.4478835000190884,0.24806830007582903,0.2719004999380559
42,2,0.0,2,False,0.0,None,right,False,2,1,0,enc,0,0,1,[],[],2,6,2 4 4 4 4 1,4,0.0,0.0,0.0,0.0,0.0,0.0,0,0.0,0.0,0.0,0.0,0.0
43,3,1.775718400022015,2,True,0.5,acc,right,False,2,1,6,ret,1,10,1,"['2', '4', '4', '4', '4', '1']","[15.84495880000759, 16.308563100057654, 16.66061930009164, 16.9805667999899, 17.324668999994174, 17.620677200029604]",2,6,# # # # # #,None,15.84495880000759,16.308563100057654,16.66061930009164,16.9805667999899,17.324668999994174,17.620677200029604,2.372383699985221,0.4636043000500649,0.3520562000339851,0.3199474998982623,0.34410220000427216,0.2960082000354305
44,4,0.0,3,False,0.0,None,right,False,2,1,0,enc,0,0,1,[],[],2,6,1 4 1 4 4 3,6,0.0,0.0,0.0,0.0,0.0,0.0,0,0.0,0.0,0.0,0.0,0.0
45,5,2.0483128000050783,3,True,0.5,acc,right,True,2,1,5,ret,1,5,1,"['1', '4', '1', '4', '4', '2']","[24.38866430008784, 24.716600400046445, 25.052589200087823, 25.70056280004792, 26.012583800009452, 26.436977100092918]",2,6,# # # # # #,None,24.38866430008784,24.716600400046445,25.052589200087823,25.70056280004792,26.012583800009452,26.436977100092918,0.26798710005823523,0.32793609995860606,0.33598880004137754,0.6479735999600962,0.31202099996153265,0.4243933000834659
46,6,0.0,3,False,0.0,None,right,False,2,1,0,enc,0,0,0,[],[],2,6,1 3 1 3 1 3,6,0.0,0.0,0.0,0.0,0.0,0.0,0,0.0,0.0,0.0,0.0,0.0
47,7,1.6240238999016583,3,True,0.5,acc,right,False,2,1,6,ret,1,10,0,"['3', '1', '3', '1', '3', '1']","[32.628604700090364, 32.908546400023624, 33.1805866000941, 33.685352400061674, 33.97254330001306, 34.25262859999202]",2,6,# # # # # #,None,32.628604700090364,32.908546400023624,33.1805866000941,33.685352400061674,33.97254330001306,34.25262859999202,-0.30837240000255406,0.2799416999332607,0.272040200070478,0.5047657999675721,0.28719089995138347,0.28008529997896403
48,8,0.0,2,False,0.0,None,right,False,2,1,0,enc,0,0,0,[],[],2,6,2 1 4 4 4 2,4,0.0,0.0,0.0,0.0,0.0,0.0,0,0.0,0.0,0.0,0.0,0.0
49,9,2.6478441000217567,2,True,0.5,acc,right,True,2,1,4,ret,1,4,0,"['2', '4', '4', '4', '2', '1']","[42.4526601000689, 42.74861420004163, 43.10055460000876, 43.500580699997954, 44.60462130000815, 45.100504200090654]",2,6,# # # # # #,None,42.4526601000689,42.74861420004163,43.10055460000876,43.500580699997954,44.60462130000815,45.100504200090654,1.700031500076875,0.29595409997273237,0.351940399967134,0.4000260999891907,1.1040406000101939,0.49588290008250624
50,10,0.0,3,False,0.0,None,right,False,2,1,0,enc,0,0,0,[],[],2,6,3 3 4 1 2 3,6,0.0,0.0,0.0,0.0,0.0,0.0,0,0.0,0.0,0.0,0.0,0.0
51,11,3.3519415000919253,3,True,0.5,acc,right,True,2,1,4,ret,1,4,0,"['3', '2', '1', '4', '4', '4']","[51.20459129998926, 51.30057020008098, 51.492498000035994, 53.05257410008926, 53.27656670007855, 54.556532800081186]",2,6,# # # # # #,None,51.20459129998926,51.30057020008098,51.492498000035994,53.05257410008926,53.27656670007855,54.556532800081186,-0.39591290010139346,0.09597890009172261,0.19192779995501041,1.5600761000532657,0.22399259998928756,1.279966100002639
52,12,0.0,2,False,0.0,None,right,False,2,1,0,enc,0,0,0,[],[],2,6,4 2 2 2 3 1,4,0.0,0.0,0.0,0.0,0.0,0.0,0,0.0,0.0,0.0,0.0,0.0
53,13,1.6800572000211105,2,True,0.5,acc,right,True,2,1,4,ret,1,4,0,"['1', '3', '2', '2', '4', '1']","[63.06056580005679, 63.340519300079904, 63.668600400094874, 63.964551700046286, 64.4286213000305, 64.7406230000779]",2,6,# # # # # #,None,63.06056580005679,63.340519300079904,63.668600400094874,63.964551700046286,64.4286213000305,64.7406230000779,2.004032999975607,0.2799535000231117,0.3280811000149697,0.2959512999514118,0.4640695999842137,0.3120017000474036
54,14,0.0,3,False,0.0,None,right,False,2,1,0,enc,0,0,1,[],[],2,6,3 2 2 1 1 4,6,0.0,0.0,0.0,0.0,0.0,0.0,0,0.0,0.0,0.0,0.0,0.0
55,15,5.708038400043732,3,True,0.5,acc,right,True,2,1,4,ret,1,4,1,"['3', '2', '2', '1', '4', '1']","[68.28903480002191, 72.4524354999885, 72.66857119998895, 73.68460200005211, 73.860522700008, 73.99707320006564]",2,6,# # # # # #,None,68.28903480002191,72.4524354999885,72.66857119998895,73.68460200005211,73.860522700008,73.99707320006564,-2.951588200055994,4.163400699966587,0.21613570000045002,1.016030800063163,0.17592069995589554,0.1365505000576377
56,16,0.0,2,False,0.0,None,right,False,2,1,0,enc,0,0,0,[],[],2,6,4 3 2 1 2 2,4,0.0,0.0,0.0,0.0,0.0,0.0,0,0.0,0.0,0.0,0.0,0.0
57,17,3.144022800028324,2,True,0.5,acc,right,True,2,1,4,ret,1,4,0,"['2', '2', '1', '2', '4', '3']","[82.02854359999765, 82.26856720005162, 82.55651020002551, 82.82053360005375, 83.20452930009924, 85.17256640002597]",2,6,# # # # # #,None,82.02854359999765,82.26856720005162,82.55651020002551,82.82053360005375,83.20452930009924,85.17256640002597,1.5314703999320045,0.2400236000539735,0.28794299997389317,0.2640234000282362,0.3839957000454888,1.9680370999267325
58,18,0.0,2,False,0.0,None,right,False,2,1,0,enc,0,0,1,[],[],2,6,3 1 4 4 2 3,4,0.0,0.0,0.0,0.0,0.0,0.0,0,0.0,0.0,0.0,0.0,0.0
59,19,2.8069386000279337,2,True,0.5,acc,right,True,2,1,3,ret,1,3,1,"['1', '4', '1', '4', '2', '3']","[94.24559679999948, 94.580693099997, 95.73252880002838, 95.89387370005716, 96.98842030006927, 97.05253540002741]",2,6,# # # # # #,None,94.24559679999948,94.580693099997,95.73252880002838,95.89387370005716,96.98842030006927,97.05253540002741,2.5730303999735042,0.3350962999975309,1.15183570003137,0.1613449000287801,1.0945466000121087,0.06411509995814413
60,20,0.0,3,False,0.0,None,right,False,2,1,0,enc,0,0,0,[],[],2,6,1 1 4 4 3 2,6,0.0,0.0,0.0,0.0,0.0,0.0,0,0.0,0.0,0.0,0.0,0.0
61,21,1.575938199996017,3,True,0.5,acc,right,True,2,1,5,ret,1,5,0,"['2', '3', '4', '4', '4', '1']","[103.61255469999742, 103.88452680001501, 104.20450340001844, 104.50853180000558, 104.81373230007011, 105.18849289999343]",2,6,# # # # # #,None,103.61255469999742,103.88452680001501,104.20450340001844,104.50853180000558,104.81373230007011,105.18849289999343,0.06001929997000843,0.2719721000175923,0.31997660000342876,0.30402839998714626,0.3052005000645295,0.3747605999233201
62,22,0.0,2,False,0.0,None,right,False,2,1,0,enc,0,0,1,[],[],2,6,4 2 1 2 4 1,4,0.0,0.0,0.0,0.0,0.0,0.0,0,0.0,0.0,0.0,0.0,0.0
63,23,1.343938500038348,2,True,0.5,acc,right,True,2,1,5,ret,1,5,1,"['1', '2', '1', '2', '4', '1']","[114.74856950005051, 114.96458740008529, 115.25250780000351, 115.49253940000199, 115.91658110008575, 116.09250800008886]",2,6,# # # # # #,None,114.74856950005051,114.96458740008529,115.25250780000351,115.49253940000199,115.91658110008575,116.09250800008886,3.060076600057073,0.21601790003478527,0.28792039991822094,0.24003159999847412,0.4240417000837624,0.1759269000031054
64,0,0.0,2,False,0.0,None,right,False,2,1,0,enc,0,0,1,[],[],3,6,1 3 3 1 2 3,4,0.0,0.0,0.0,0.0,0.0,0.0,0,0.0,0.0,0.0,0.0,0.0
65,1,3.1278873000992458,2,True,0.5,acc,right,True,2,1,5,ret,1,5,1,"['1', '4', '3', '1', '2', '3']","[6.6415474999230355, 6.9065671999705955, 8.60146919998806, 8.841556799947284, 9.48951169999782, 9.769434800022282]",3,6,# # # # # #,None,6.6415474999230355,6.9065671999705955,8.60146919998806,8.841556799947284,9.48951169999782,9.769434800022282,NaN,0.26501970004756004,1.6949020000174642,0.24008759995922446,0.6479549000505358,0.27992310002446175
66,2,0.0,3,False,0.0,None,right,False,2,1,0,enc,0,0,0,[],[],3,6,2 3 1 2 2 1,6,0.0,0.0,0.0,0.0,0.0,0.0,0,0.0,0.0,0.0,0.0,0.0
67,3,1.647932099993341,3,True,0.5,acc,right,True,2,1,3,ret,1,3,0,"['1', '2', '2', '3', '2', '1']","[16.617587500019, 16.88150489993859, 17.155023199971765, 17.601601999951527, 17.899234400014393, 18.26551960001234]",3,6,# # # # # #,None,16.617587500019,16.88150489993859,17.155023199971765,17.601601999951527,17.899234400014393,18.26551960001234,0.3481526999967173,0.26391739991959184,0.27351830003317446,0.44657879997976124,0.2976324000628665,0.3662851999979466
68,4,0.0,3,False,0.0,None,right,False,2,1,0,enc,0,0,1,[],[],3,6,4 1 3 2 2 1,6,0.0,0.0,0.0,0.0,0.0,0.0,0,0.0,0.0,0.0,0.0,0.0
69,5,1.727953699999489,3,True,0.5,acc,right,False,2,1,6,ret,1,10,1,"['4', '1', '3', '2', '2', '1']","[24.849522699951194, 25.129617400001734, 25.65949869994074, 26.049615599913523, 26.289474999997765, 26.577476399950683]",3,6,# # # # # #,None,24.849522699951194,25.129617400001734,25.65949869994074,26.049615599913523,26.289474999997765,26.577476399950683,0.08400309993885458,0.28009470005054027,0.5298812999390066,0.39011689997278154,0.23985940008424222,0.2880013999529183
70,6,0.0,2,False,0.0,None,right,False,2,1,0,enc,0,0,0,[],[],3,6,3 4 4 3 4 1,4,0.0,0.0,0.0,0.0,0.0,0.0,0,0.0,0.0,0.0,0.0,0.0
71,7,3.3028466999530792,2,True,0.5,acc,right,True,2,1,2,ret,1,2,0,"['1', '4', '4', '2', '2', '1']","[35.44263860001229, 35.889560899930075, 37.04148379992694, 37.54547899996396, 38.39360569999553, 38.74548529996537]",3,6,# # # # # #,None,35.44263860001229,35.889560899930075,37.04148379992694,37.54547899996396,38.39360569999553,38.74548529996537,2.3651622000616044,0.4469222999177873,1.1519228999968618,0.5039952000370249,0.8481267000315711,0.3518795999698341
72,8,0.0,3,False,0.0,None,right,False,2,1,0,enc,0,0,1,[],[],3,6,1 2 2 4 4 3,6,0.0,0.0,0.0,0.0,0.0,0.0,0,0.0,0.0,0.0,0.0,0.0
73,9,1.2560510999755934,3,True,0.5,acc,right,False,2,1,6,ret,1,10,1,"['1', '2', '2', '4', '4', '3']","[45.35346979997121, 45.577492699958384, 45.79337919992395, 46.121487199910916, 46.33758429996669, 46.6095208999468]",3,6,# # # # # #,None,45.35346979997121,45.577492699958384,45.79337919992395,46.121487199910916,46.33758429996669,46.6095208999468,0.10798450000584126,0.22402289998717606,0.21588649996556342,0.32810799998696893,0.21609710005577654,0.27193659998010844
74,10,0.0,2,False,0.0,None,right,False,2,1,0,enc,0,0,0,[],[],3,6,4 4 3 2 3 3,4,0.0,0.0,0.0,0.0,0.0,0.0,0,0.0,0.0,0.0,0.0,0.0
75,11,3.319987199967727,2,True,0.5,acc,right,True,2,1,3,ret,1,3,0,"['3', '3', '3', '2', '4', '1']","[54.60146379994694, 54.849478199961595, 55.57740830001421, 55.87341409991495, 57.68954399996437, 57.92145099991467]",3,6,# # # # # #,None,54.60146379994694,54.849478199961595,55.57740830001421,55.87341409991495,57.68954399996437,57.92145099991467,1.49194290000014,0.2480144000146538,0.7279301000526175,0.2960057999007404,1.8161299000494182,0.23190699995029718
76,12,0.0,3,False,0.0,None,right,False,2,1,0,enc,0,0,0,[],[],3,6,2 4 3 2 2 4,6,0.0,0.0,0.0,0.0,0.0,0.0,0,0.0,0.0,0.0,0.0,0.0
77,13,4.486285799997859,3,True,0.5,acc,right,True,2,1,2,ret,1,2,0,"['4', '1', '2', '4', '1', '3']","[64.4111688999692, 65.23338190000504, 66.4814681999851, 68.44298539997544, 68.64959719998296, 68.89745469996706]",3,6,# # # # # #,None,64.4111688999692,65.23338190000504,66.4814681999851,68.44298539997544,68.64959719998296,68.89745469996706,-0.01028209994547069,0.8222130000358447,1.2480862999800593,1.9615171999903396,0.2066118000075221,0.247857499984093
78,14,0.0,2,False,0.0,None,right,False,2,1,0,enc,0,0,0,[],[],3,6,2 3 4 4 1 2,4,0.0,0.0,0.0,0.0,0.0,0.0,0,0.0,0.0,0.0,0.0,0.0
79,15,4.120106599992141,2,True,0.5,acc,right,True,2,1,2,ret,1,2,0,"['2', '3', '4', '1', '2', '1']","[76.99348169995937, 78.38542479998432, 79.913676999975, 80.20944959996268, 80.91346670000348, 81.11358829995152]",3,6,# # # # # #,None,76.99348169995937,78.38542479998432,79.913676999975,80.20944959996268,80.91346670000348,81.11358829995152,1.5960269999923185,1.391943100024946,1.5282521999906749,0.2957725999876857,0.7040171000408009,0.2001215999480337
80,16,0.0,3,False,0.0,None,right,False,2,1,0,enc,0,0,1,[],[],3,6,2 1 1 2 4 1,6,0.0,0.0,0.0,0.0,0.0,0.0,0,0.0,0.0,0.0,0.0,0.0
81,17,3.4637406000401825,3,True,0.5,acc,right,True,2,1,2,ret,1,2,1,"['2', '2', '2', '4', '2', '1']","[87.75372579996474, 88.02553520002402, 88.51354139996693, 90.4254805999808, 90.9699127000058, 91.21746640000492]",3,6,# # # # # #,None,87.75372579996474,88.02553520002402,88.51354139996693,90.4254805999808,90.9699127000058,91.21746640000492,0.14013750001322478,0.2718094000592828,0.48800619994290173,1.911939200013876,0.5444321000250056,0.24755369999911636
82,18,0.0,3,False,0.0,None,right,False,2,1,0,enc,0,0,0,[],[],3,6,3 2 1 1 3 2,6,0.0,0.0,0.0,0.0,0.0,0.0,0,0.0,0.0,0.0,0.0,0.0
83,19,3.0160266000311817,3,True,0.5,acc,right,False,2,1,6,ret,1,10,0,"['2', '3', '1', '1', '2', '3']","[97.9214855999453, 98.20935010001995, 98.53737979999278, 100.45755469996948, 100.70545459992718, 100.93751219997648]",3,6,# # # # # #,None,97.9214855999453,98.20935010001995,98.53737979999278,100.45755469996948,100.70545459992718,100.93751219997648,0.20401919994037598,0.28786450007464737,0.3280296999728307,1.9201748999767005,0.24789989995770156,0.23205760004930198
84,20,0.0,2,False,0.0,None,right,False,2,1,0,enc,0,0,1,[],[],3,6,1 4 1 4 2 1,4,0.0,0.0,0.0,0.0,0.0,0.0,0,0.0,0.0,0.0,0.0,0.0
85,21,2.168319599935785,2,True,0.5,acc,right,False,2,1,6,ret,1,10,1,"['1', '4', '1', '4', '2', '1']","[109.5854171999963, 110.08944070001598, 110.3933894999791, 110.68140569992829, 111.63354049995542, 111.75373679993208]",3,6,# # # # # #,None,109.5854171999963,110.08944070001598,110.3933894999791,110.68140569992829,111.63354049995542,111.75373679993208,2.1479050000198185,0.5040235000196844,0.3039487999631092,0.28801619994919747,0.9521348000271246,0.12019629997666925
86,22,0.0,2,False,0.0,None,right,False,2,1,0,enc,0,0,1,[],[],3,6,1 3 2 1 1 3,4,0.0,0.0,0.0,0.0,0.0,0.0,0,0.0,0.0,0.0,0.0,0.0
87,23,1.3928469000384212,2,True,0.5,acc,right,False,2,1,6,ret,1,10,1,"['1', '3', '2', '1', '1', '3']","[120.44940339995082, 120.68133829999715, 120.9614318999229, 121.21753619995434, 121.56134659994859, 121.84225029998925]",3,6,# # # # # #,None,120.44940339995082,120.68133829999715,120.9614318999229,121.21753619995434,121.56134659994859,121.84225029998925,2.1956666000187397,0.23193490004632622,0.280093599925749,0.25610430003143847,0.3438103999942541,0.28090370004065335
88,0,0.0,2,False,0.0,None,right,False,2,1,0,enc,0,0,1,[],[],4,6,4 4 1 3 2 2,4,0.0,0.0,0.0,0.0,0.0,0.0,0,0.0,0.0,0.0,0.0,0.0
89,1,1.7039727999363097,2,True,0.5,acc,right,False,2,1,6,ret,1,10,1,"['4', '4', '1', '3', '2', '2']","[6.999219799996354, 7.255174099933356, 7.808190000010654, 8.13523949997034, 8.535151599906385, 8.703192599932663]",4,6,# # # # # #,None,6.999219799996354,7.255174099933356,7.808190000010654,8.13523949997034,8.535151599906385,8.703192599932663,NaN,0.25595429993700236,0.5530159000772983,0.3270494999596849,0.3999120999360457,0.1680410000262782
90,2,0.0,2,False,0.0,None,right,False,2,1,0,enc,0,0,0,[],[],4,6,3 2 1 3 4 3,4,0.0,0.0,0.0,0.0,0.0,0.0,0,0.0,0.0,0.0,0.0,0.0
91,3,4.6401506999973225,2,True,0.5,acc,right,True,2,1,3,ret,1,3,0,"['3', '4', '4', '1', '3', '1']","[17.911168099963106, 18.199220999958925, 20.031217399984598, 20.19220269995276, 22.43139549996704, 22.551318799960427]",4,6,# # # # # #,None,17.911168099963106,18.199220999958925,20.031217399984598,20.19220269995276,22.43139549996704,22.551318799960427,2.707975500030443,0.28805289999581873,1.8319964000256732,0.1609852999681607,2.23919280001428,0.11992329999338835
92,4,0.0,3,False,0.0,None,right,False,2,1,0,enc,0,0,0,[],[],4,6,2 3 2 3 1 2,6,0.0,0.0,0.0,0.0,0.0,0.0,0,0.0,0.0,0.0,0.0,0.0
93,5,9.2772968999343,3,True,0.5,acc,right,True,2,1,1,ret,1,1,0,"['3', '1', '2', '3', '2', '1']","[26.097907199990004, 32.335221999906935, 33.27212799992412, 34.775200499920174, 35.063196099945344, 35.375204099924304]",4,6,# # # # # #,None,26.097907199990004,32.335221999906935,33.27212799992412,34.775200499920174,35.063196099945344,35.375204099924304,-2.9534115999704227,6.2373147999169305,0.9369060000171885,1.5030724999960512,0.28799560002516955,0.31200799997895956
94,6,0.0,3,False,0.0,None,right,False,2,1,0,enc,0,0,1,[],[],4,6,4 4 4 2 2 1,6,0.0,0.0,0.0,0.0,0.0,0.0,0,0.0,0.0,0.0,0.0,0.0
95,7,1.968011899967678,3,True,0.5,acc,right,True,2,1,4,ret,1,4,1,"['4', '4', '4', '4', '2', '2']","[42.031187499989755, 42.25516219995916, 42.48720539989881, 43.14320689998567, 43.75133349990938, 43.99919939995743]",4,6,# # # # # #,None,42.031187499989755,42.25516219995916,42.48720539989881,43.14320689998567,43.75133349990938,43.99919939995743,0.15598340006545186,0.22397469996940345,0.23204319993965328,0.6560015000868589,0.6081265999237075,0.24786590004805475
96,8,0.0,2,False,0.0,None,right,False,2,1,0,enc,0,0,1,[],[],4,6,3 1 4 3 4 1,4,0.0,0.0,0.0,0.0,0.0,0.0,0,0.0,0.0,0.0,0.0,0.0
97,9,2.6640539000509307,2,True,0.5,acc,right,True,2,1,4,ret,1,4,1,"['3', '1', '2', '3', '3', '1']","[53.23917909990996, 53.43175019999035, 54.407111599924974, 54.52755030000117, 55.7751821000129, 55.90323299996089]",4,6,# # # # # #,None,53.23917909990996,53.43175019999035,54.407111599924974,54.52755030000117,55.7751821000129,55.90323299996089,2.739979699952528,0.1925711000803858,0.9753613999346271,0.12043870007619262,1.2476318000117317,0.12805089994799346
98,10,0.0,3,False,0.0,None,right,False,2,1,0,enc,0,0,1,[],[],4,6,3 1 4 2 4 3,6,0.0,0.0,0.0,0.0,0.0,0.0,0,0.0,0.0,0.0,0.0,0.0
99,11,1.703877600026317,3,True,0.5,acc,right,False,2,1,6,ret,1,10,1,"['3', '1', '4', '2', '4', '3']","[62.615203699911945, 62.91916179994587, 63.191163199953735, 63.52721329999622, 64.02314649999607, 64.31908129993826]",4,6,# # # # # #,None,62.615203699911945,62.91916179994587,63.191163199953735,63.52721329999622,64.02314649999607,64.31908129993826,0.21197069995105267,0.303958100033924,0.2720014000078663,0.3360501000424847,0.49593319999985397,0.29593479994218796
100,12,0.0,2,False,0.0,None,right,False,2,1,0,enc,0,0,0,[],[],4,6,2 1 4 1 4 4,4,0.0,0.0,0.0,0.0,0.0,0.0,0,0.0,0.0,0.0,0.0,0.0
101,13,4.728024100069888,2,True,0.5,acc,right,True,2,1,4,ret,1,4,0,"['4', '4', '1', '4', '3', '1']","[72.48719389992766, 72.7685847999528, 73.74313439999241, 75.63912449998315, 77.02315789996646, 77.21521799999755]",4,6,# # # # # #,None,72.48719389992766,72.7685847999528,73.74313439999241,75.63912449998315,77.02315789996646,77.21521799999755,1.6681125999893993,0.2813909000251442,0.9745496000396088,1.8959900999907404,1.3840333999833092,0.1920601000310853
102,14,0.0,3,False,0.0,None,right,False,2,1,0,enc,0,0,0,[],[],4,6,4 4 4 2 2 3,6,0.0,0.0,0.0,0.0,0.0,0.0,0,0.0,0.0,0.0,0.0,0.0
103,15,1.2309147000778466,3,True,0.5,acc,right,False,2,1,6,ret,1,10,0,"['3', '2', '2', '4', '4', '4']","[83.96815659990534, 84.2871186999837, 84.48720549989957, 84.7590768999653, 84.98319689999335, 85.19907129998319]",4,6,# # # # # #,None,83.96815659990534,84.2871186999837,84.48720549989957,84.7590768999653,84.98319689999335,85.19907129998319,0.2529385999077931,0.3189621000783518,0.20008679991587996,0.2718714000657201,0.22412000002805144,0.21587439998984337
104,16,0.0,2,False,0.0,None,right,False,2,1,0,enc,0,0,1,[],[],4,6,4 2 3 2 4 3,4,0.0,0.0,0.0,0.0,0.0,0.0,0,0.0,0.0,0.0,0.0,0.0
105,17,2.3678596999961883,2,True,0.5,acc,right,False,2,1,6,ret,1,10,1,"['4', '2', '3', '2', '4', '3']","[95.03127109992784, 95.33529959991574, 95.79119899997022, 96.03121809998993, 97.04715729993768, 97.39913079992402]",4,6,# # # # # #,None,95.03127109992784,95.33529959991574,95.79119899997022,96.03121809998993,97.04715729993768,97.39913079992402,3.3321997999446467,0.3040284999879077,0.45589940005447716,0.24001910001970828,1.015939199947752,0.3519734999863431
106,18,0.0,2,False,0.0,None,right,False,2,1,0,enc,0,0,0,[],[],4,6,4 4 2 3 3 4,4,0.0,0.0,0.0,0.0,0.0,0.0,0,0.0,0.0,0.0,0.0,0.0
107,19,3.094956299988553,2,True,0.5,acc,right,True,2,1,4,ret,1,4,0,"['4', '3', '2', '2', '4', '2']","[105.51205989997834, 105.79117400001269, 106.17506839998532, 106.76715239998884, 108.39117169997189, 108.60701619996689]",4,6,# # # # # #,None,105.51205989997834,105.79117400001269,106.17506839998532,106.76715239998884,108.39117169997189,108.60701619996689,1.6129291000543162,0.27911410003434867,0.3838943999726325,0.5920840000035241,1.624019299983047,0.21584449999500066
108,20,0.0,3,False,0.0,None,right,False,2,1,0,enc,0,0,1,[],[],4,6,3 3 3 1 1 2,6,0.0,0.0,0.0,0.0,0.0,0.0,0,0.0,0.0,0.0,0.0,0.0
109,21,1.4080929999472571,3,True,0.5,acc,right,False,2,1,6,ret,1,10,1,"['3', '3', '3', '1', '1', '2']","[114.53494799998589, 114.79112159996293, 115.0392691999441, 115.38311759999488, 115.6550543999765, 115.94304099993315]",4,6,# # # # # #,None,114.53494799998589,114.79112159996293,115.0392691999441,115.38311759999488,115.6550543999765,115.94304099993315,-0.572068199981004,0.25617359997704625,0.24814759998116642,0.3438484000507742,0.27193679998163134,0.2879865999566391
110,22,0.0,3,False,0.0,None,right,False,2,1,0,enc,0,0,0,[],[],4,6,1 4 3 2 2 1,6,0.0,0.0,0.0,0.0,0.0,0.0,0,0.0,0.0,0.0,0.0,0.0
111,23,1.849687400041148,3,True,0.5,acc,right,True,2,1,3,ret,1,3,0,"['1', '2', '2', '4', '1', '3']","[122.11907479993533, 122.44716969993897, 122.73521720001008, 123.34309729991946, 123.64708349993452, 123.96876219997648]",4,6,# # # # # #,None,122.11907479993533,122.44716969993897,122.73521720001008,123.34309729991946,123.64708349993452,123.96876219997648,-0.3239661999978125,0.3280949000036344,0.2880475000711158,0.6078800999093801,0.3039862000150606,0.3216787000419572
112,0,0.0,3,False,0.0,None,right,False,2,1,0,enc,0,0,1,[],[],5,6,4 3 1 1 1 1,6,0.0,0.0,0.0,0.0,0.0,0.0,0,0.0,0.0,0.0,0.0,0.0
113,1,1.7681259999517351,3,True,0.5,acc,right,False,2,1,6,ret,1,10,1,"['4', '3', '1', '1', '1', '1']","[4.52182750008069, 5.329688600031659, 5.633650400093757, 5.8656367000658065, 6.081577999982983, 6.289953500032425]",5,6,# # # # # #,None,4.52182750008069,5.329688600031659,5.633650400093757,5.8656367000658065,6.081577999982983,6.289953500032425,NaN,0.8078610999509692,0.3039618000620976,0.2319862999720499,0.21594129991717637,0.20837550004944205
114,2,0.0,3,False,0.0,None,right,False,2,1,0,enc,0,0,1,[],[],5,6,2 4 2 3 2 4,6,0.0,0.0,0.0,0.0,0.0,0.0,0,0.0,0.0,0.0,0.0,0.0
115,3,4.1922475000610575,3,True,0.5,acc,right,True,2,1,2,ret,1,2,1,"['4', '2', '2', '2', '3', '4']","[13.081692000036128, 13.521689200075343, 15.145704000024125, 16.33951329998672, 16.817687000031583, 17.273939500097185]",5,6,# # # # # #,None,13.081692000036128,13.521689200075343,15.145704000024125,16.33951329998672,16.817687000031583,17.273939500097185,0.29173850000370294,0.4399972000392154,1.6240147999487817,1.193809299962595,0.4781737000448629,0.45625250006560236
116,4,0.0,2,False,0.0,None,right,False,2,1,0,enc,0,0,1,[],[],5,6,4 3 3 2 2 2,4,0.0,0.0,0.0,0.0,0.0,0.0,0,0.0,0.0,0.0,0.0,0.0
117,5,2.041330999927596,2,True,0.5,acc,right,False,2,1,6,ret,1,10,1,"['4', '3', '3', '2', '2', '2']","[26.033688600058667, 26.329657300026156, 27.32163370004855, 27.609671300044283, 27.881612800061703, 28.075019599986263]",5,6,# # # # # #,None,26.033688600058667,26.329657300026156,27.32163370004855,27.609671300044283,27.881612800061703,28.075019599986263,2.259749099961482,0.29596869996748865,0.991976400022395,0.2880375999957323,0.27194150001741946,0.1934067999245599
118,6,0.0,2,False,0.0,None,right,False,2,1,0,enc,0,0,1,[],[],5,6,2 3 1 3 2 3,4,0.0,0.0,0.0,0.0,0.0,0.0,0,0.0,0.0,0.0,0.0,0.0
119,7,2.415931500028819,2,True,0.5,acc,right,True,2,1,3,ret,1,3,1,"['1', '2', '2', '3', '2', '3']","[38.641672900062986, 38.86567070009187, 39.627181100076996, 39.85764860000927, 40.87374579999596, 41.057604400091805]",5,6,# # # # # #,None,38.641672900062986,38.86567070009187,39.627181100076996,39.85764860000927,40.87374579999596,41.057604400091805,4.066653300076723,0.22399780002888292,0.7615103999851272,0.23046749993227422,1.0160971999866888,0.18385860009584576
120,8,0.0,2,False,0.0,None,right,False,2,1,0,enc,0,0,0,[],[],5,6,3 2 3 1 3 4,4,0.0,0.0,0.0,0.0,0.0,0.0,0,0.0,0.0,0.0,0.0,0.0
121,9,8.33123229991179,2,True,0.5,acc,right,True,2,1,1,ret,1,1,0,"['3', '3', '2', '1', '3', '4']","[46.61446270009037, 51.897735100006685, 53.01762520009652, 53.39366320008412, 54.697646900080144, 54.94569500000216]",5,6,# # # # # #,None,46.61446270009037,51.897735100006685,53.01762520009652,53.39366320008412,54.697646900080144,54.94569500000216,-0.9431417000014335,5.283272399916314,1.1198901000898331,0.37603799998760223,1.3039836999960244,0.24804809992201626
122,10,0.0,3,False,0.0,None,right,False,2,1,0,enc,0,0,0,[],[],5,6,1 3 1 4 1 1,6,0.0,0.0,0.0,0.0,0.0,0.0,0,0.0,0.0,0.0,0.0,0.0
123,11,1.1038925999309868,3,True,0.5,acc,right,True,2,1,2,ret,1,2,0,"['1', '3', '1', '4', '1', '1']","[61.217722900095396, 61.44968930003233, 61.64179210003931, 61.913624500040896, 62.121606200002134, 62.32161550002638]",5,6,# # # # # #,None,61.217722900095396,61.44968930003233,61.64179210003931,61.913624500040896,62.121606200002134,62.32161550002638,-0.22797209990676492,0.2319663999369368,0.1921028000069782,0.2718324000015855,0.2079816999612376,0.20000930002424866
124,12,0.0,3,False,0.0,None,right,False,2,1,0,enc,0,0,0,[],[],5,6,3 3 4 4 1 1,6,0.0,0.0,0.0,0.0,0.0,0.0,0,0.0,0.0,0.0,0.0,0.0
125,13,2.8639762999955565,3,True,0.5,acc,right,True,2,1,4,ret,1,4,0,"['1', '1', '4', '3', '4', '3']","[68.72165740001947, 68.98569540004246, 69.27361340005882, 70.31485450000037, 70.81762880005408, 71.58563370001502]",5,6,# # # # # #,None,68.72165740001947,68.98569540004246,69.27361340005882,70.31485450000037,70.81762880005408,71.58563370001502,-0.09995810000691563,0.2640380000229925,0.2879180000163615,1.0412410999415442,0.5027743000537157,0.7680048999609426
126,14,0.0,2,False,0.0,None,right,False,2,1,0,enc,0,0,0,[],[],5,6,1 4 1 2 4 4,4,0.0,0.0,0.0,0.0,0.0,0.0,0,0.0,0.0,0.0,0.0,0.0
127,15,2.3920101999538006,2,True,0.5,acc,right,False,2,1,6,ret,1,10,0,"['4', '4', '2', '1', '4', '1']","[79.89760030002799, 80.12966420000885, 80.834386200062, 81.07365839998238, 82.22568500007037, 82.28961049998179]",5,6,# # # # # #,None,79.89760030002799,80.12966420000885,80.834386200062,81.07365839998238,82.22568500007037,82.28961049998179,1.8119666000129655,0.23206389998085797,0.7047220000531524,0.23927219992037863,1.1520266000879928,0.06392549991142005
128,16,0.0,2,False,0.0,None,right,False,2,1,0,enc,0,0,1,[],[],5,6,1 2 2 1 4 2,4,0.0,0.0,0.0,0.0,0.0,0.0,0,0.0,0.0,0.0,0.0,0.0
129,17,2.5120026000076905,2,True,0.5,acc,right,True,2,1,1,ret,1,1,1,"['2', '1', '1', '2', '4', '1']","[91.60159470001236, 91.83368809998501, 92.59362280007917, 92.82622020004783, 93.9616617000429, 94.11359730002005]",5,6,# # # # # #,None,91.60159470001236,91.83368809998501,92.59362280007917,92.82622020004783,93.9616617000429,94.11359730002005,2.8119842000305653,0.23209339997265488,0.7599347000941634,0.23259739996865392,1.1354414999950677,0.15193559997715056
130,18,0.0,3,False,0.0,None,right,False,2,1,0,enc,0,0,1,[],[],5,6,2 2 1 3 1 3,6,0.0,0.0,0.0,0.0,0.0,0.0,0,0.0,0.0,0.0,0.0,0.0
131,19,1.2960889000678435,3,True,0.5,acc,right,False,2,1,6,ret,1,10,1,"['2', '2', '1', '3', '1', '3']","[100.3616720000282, 100.6424727999838, 100.9376475000754, 101.21755579998717, 101.41753790003713, 101.65776090009604]",5,6,# # # # # #,None,100.3616720000282,100.6424727999838,100.9376475000754,101.21755579998717,101.41753790003713,101.65776090009604,-0.25192529999185354,0.2808007999556139,0.29517470009159297,0.27990829991176724,0.19998210004996508,0.2402230000589043
132,20,0.0,2,False,0.0,None,right,False,2,1,0,enc,0,0,0,[],[],5,6,3 4 2 3 1 4,4,0.0,0.0,0.0,0.0,0.0,0.0,0,0.0,0.0,0.0,0.0,0.0
133,21,3.1281065000221133,2,True,0.5,acc,right,True,2,1,4,ret,1,4,0,"['4', '1', '3', '2', '3', '1']","[109.70544210006483, 109.92957140004728, 110.96161210001446, 111.19359350006562, 112.71358550002333, 112.83354860008694]",5,6,# # # # # #,None,109.70544210006483,109.92957140004728,110.96161210001446,111.19359350006562,112.71358550002333,112.83354860008694,1.5476811999687925,0.2241292999824509,1.0320406999671832,0.2319814000511542,1.5199919999577105,0.11996310006361455
134,22,0.0,3,False,0.0,None,right,False,2,1,0,enc,0,0,0,[],[],5,6,2 3 3 3 4 2,6,0.0,0.0,0.0,0.0,0.0,0.0,0,0.0,0.0,0.0,0.0,0.0
135,23,2.775618299958296,3,True,0.5,acc,right,True,2,1,3,ret,1,3,0,"['2', '4', '3', '2', '1', '1']","[121.19397580006626, 121.6016184000764, 122.52961530000903, 123.49750310007948, 123.77757770009339, 123.96959410002455]",5,6,# # # # # #,None,121.19397580006626,121.6016184000764,122.52961530000903,123.49750310007948,123.77757770009339,123.96959410002455,1.8604271999793127,0.4076426000101492,0.9279968999326229,0.9678878000704572,0.2800746000139043,0.1920163999311626
136,0,0.0,2,False,0.0,None,right,False,2,1,0,enc,0,0,1,[],[],6,6,2 3 1 1 2 3,4,0.0,0.0,0.0,0.0,0.0,0.0,0,0.0,0.0,0.0,0.0,0.0
137,1,1.07200400007423,2,True,0.5,acc,right,False,2,1,6,ret,1,10,1,"['2', '3', '1', '1', '2', '3']","[6.858930799993686, 7.0588472000090405, 7.314870800008066, 7.53085410001222, 7.778773400001228, 7.9309348000679165]",6,6,# # # # # #,None,6.858930799993686,7.0588472000090405,7.314870800008066,7.53085410001222,7.778773400001228,7.9309348000679165,NaN,0.19991640001535416,0.25602359999902546,0.21598330000415444,0.2479192999890074,0.15216140006668866
138,2,0.0,3,False,0.0,None,right,False,2,1,0,enc,0,0,1,[],[],6,6,2 3 3 4 2 2,6,0.0,0.0,0.0,0.0,0.0,0.0,0,0.0,0.0,0.0,0.0,0.0
139,3,2.3840177999809384,3,True,0.5,acc,right,True,2,1,5,ret,1,5,1,"['2', '2', '3', '4', '2', '2']","[14.922848700080067, 15.114693900104612, 15.362776100053452, 16.891754800104536, 17.122945700073615, 17.306866500061005]",6,6,# # # # # #,None,14.922848700080067,15.114693900104612,15.362776100053452,16.891754800104536,17.122945700073615,17.306866500061005,0.4919139000121504,0.1918452000245452,0.24808219994883984,1.5289787000510842,0.2311908999690786,0.18392079998739064
140,4,0.0,2,False,0.0,None,right,False,2,1,0,enc,0,0,0,[],[],6,6,3 1 2 4 4 4,4,0.0,0.0,0.0,0.0,0.0,0.0,0,0.0,0.0,0.0,0.0,0.0
141,5,2.695361800026149,2,True,0.5,acc,right,True,2,1,4,ret,1,4,0,"['4', '4', '4', '2', '3', '2']","[25.435502400039695, 25.65091890003532, 26.530836699996144, 26.810952400090173, 27.96281550009735, 28.130864200065844]",6,6,# # # # # #,None,25.435502400039695,25.65091890003532,26.530836699996144,26.810952400090173,27.96281550009735,28.130864200065844,1.6286358999786898,0.2154164999956265,0.8799177999608219,0.2801157000940293,1.1518631000071764,0.16804869996849447
142,6,0.0,3,False,0.0,None,right,False,2,1,0,enc,0,0,1,[],[],6,6,3 3 1 3 2 2,6,0.0,0.0,0.0,0.0,0.0,0.0,0,0.0,0.0,0.0,0.0,0.0
143,7,2.352535400073976,3,True,0.5,acc,right,True,2,1,4,ret,1,4,1,"['3', '1', '1', '3', '3', '2']","[34.88284440001007, 35.50684050004929, 35.746855100034736, 36.89885260001756, 37.066849400056526, 37.23537980008405]",6,6,# # # # # #,None,34.88284440001007,35.50684050004929,35.746855100034736,36.89885260001756,37.066849400056526,37.23537980008405,0.25198019994422793,0.6239961000392213,0.24001459998544306,1.1519974999828264,0.16799680003896356,0.16853040002752095
144,8,0.0,2,False,0.0,None,right,False,2,1,0,enc,0,0,1,[],[],6,6,1 2 2 2 4 1,4,0.0,0.0,0.0,0.0,0.0,0.0,0,0.0,0.0,0.0,0.0,0.0
145,9,1.6079356999835,2,True,0.5,acc,right,False,2,1,6,ret,1,10,1,"['1', '2', '2', '2', '4', '1']","[46.13087760005146, 46.39480980008375, 46.666846700012684, 46.994970400002785, 47.52280230005272, 47.73881330003496]",6,6,# # # # # #,None,46.13087760005146,46.39480980008375,46.666846700012684,46.994970400002785,47.52280230005272,47.73881330003496,2.3954977999674156,0.26393220003228635,0.27203689992893487,0.32812369999010116,0.5278319000499323,0.21601099998224527
146,10,0.0,3,False,0.0,None,right,False,2,1,0,enc,0,0,1,[],[],6,6,3 1 4 4 2 4,6,0.0,0.0,0.0,0.0,0.0,0.0,0,0.0,0.0,0.0,0.0,0.0
147,11,1.6737653999589384,3,True,0.5,acc,right,False,2,1,6,ret,1,10,1,"['3', '1', '4', '4', '2', '4']","[56.10683400009293, 56.33878310001455, 56.62681640009396, 57.35482000000775, 57.59480810002424, 57.78059940005187]",6,6,# # # # # #,None,56.10683400009293,56.33878310001455,56.62681640009396,57.35482000000775,57.59480810002424,57.78059940005187,1.8680207000579685,0.23194909992162138,0.2880333000794053,0.7280035999137908,0.23998810001648962,0.18579130002763122
148,12,0.0,3,False,0.0,None,right,False,2,1,0,enc,0,0,0,[],[],6,6,3 4 1 3 4 2,6,0.0,0.0,0.0,0.0,0.0,0.0,0,0.0,0.0,0.0,0.0,0.0
149,13,4.103967200033367,3,True,0.5,acc,right,True,2,1,3,ret,1,3,0,"['2', '4', '2', '3', '4', '1']","[64.4188192000147, 64.7308897000039, 65.81086170009803, 67.57077750004828, 67.90679850010201, 68.52278640004806]",6,6,# # # # # #,None,64.4188192000147,64.7308897000039,65.81086170009803,67.57077750004828,67.90679850010201,68.52278640004806,0.13821979996282607,0.3120704999892041,1.0799720000941306,1.7599157999502495,0.3360210000537336,0.6159878999460489
150,14,0.0,3,False,0.0,None,right,False,2,1,0,enc,0,0,0,[],[],6,6,1 2 1 3 1 1,6,0.0,0.0,0.0,0.0,0.0,0.0,0,0.0,0.0,0.0,0.0,0.0
151,15,1.887885899981484,3,True,0.5,acc,right,True,2,1,3,ret,1,3,0,"['1', '1', '3', '3', '1', '3']","[74.73893840005621, 74.95484470005613, 75.24289039999712, 76.03481320000719, 76.35491460002959, 76.6268243000377]",6,6,# # # # # #,None,74.73893840005621,74.95484470005613,75.24289039999712,76.03481320000719,76.35491460002959,76.6268243000377,-0.28384799999184906,0.21590629999991506,0.2880456999409944,0.7919228000100702,0.32010140002239496,0.2719097000081092
152,16,0.0,2,False,0.0,None,right,False,2,1,0,enc,0,0,1,[],[],6,6,2 1 4 3 3 2,4,0.0,0.0,0.0,0.0,0.0,0.0,0,0.0,0.0,0.0,0.0,0.0
153,17,3.7680962000740688,2,True,0.5,acc,right,True,2,1,5,ret,1,5,1,"['4', '1', '4', '3', '3', '2']","[85.48270849999972, 85.73077020002529, 87.2987896000268, 88.12278890004382, 88.778807100025, 89.25080470007379]",6,6,# # # # # #,None,85.48270849999972,85.73077020002529,87.2987896000268,88.12278890004382,88.778807100025,89.25080470007379,2.35588419996202,0.24806170002557337,1.5680194000015035,0.8239993000170216,0.6560181999811903,0.47199760004878044
154,18,0.0,2,False,0.0,None,right,False,2,1,0,enc,0,0,0,[],[],6,6,1 4 4 1 2 3,4,0.0,0.0,0.0,0.0,0.0,0.0,0,0.0,0.0,0.0,0.0,0.0
155,19,3.4880340999225155,2,True,0.5,acc,right,True,2,1,4,ret,1,4,0,"['3', '2', '4', '1', '4', '1']","[97.32286030007526, 97.53903000010177, 98.11484920000657, 98.4187809000723, 100.48275439999998, 100.81089439999778]",6,6,# # # # # #,None,97.32286030007526,97.53903000010177,98.11484920000657,98.4187809000723,100.48275439999998,100.81089439999778,1.5720556000014767,0.21616970002651215,0.5758191999047995,0.303931700065732,2.0639734999276698,0.3281399999978021
156,20,0.0,2,False,0.0,None,right,False,2,1,0,enc,0,0,0,[],[],6,6,2 1 2 3 4 4,4,0.0,0.0,0.0,0.0,0.0,0.0,0,0.0,0.0,0.0,0.0,0.0
157,21,2.4159014999168,2,True,0.5,acc,right,True,2,1,4,ret,1,4,0,"['4', '4', '3', '2', '2', '1']","[108.92280390008818, 109.13859500002582, 109.96280910004862, 110.21156409999821, 111.11485850007739, 111.33870540000498]",6,6,# # # # # #,None,108.92280390008818,109.13859500002582,109.96280910004862,110.21156409999821,111.11485850007739,111.33870540000498,1.6119095000904053,0.21579109993763268,0.8242141000228003,0.24875499994959682,0.9032944000791758,0.22384689992759377
158,22,0.0,3,False,0.0,None,right,False,2,1,0,enc,0,0,0,[],[],6,6,3 1 3 4 2 3,6,0.0,0.0,0.0,0.0,0.0,0.0,0,0.0,0.0,0.0,0.0,0.0
159,23,2.008010399993509,3,True,0.5,acc,right,True,2,1,4,ret,1,4,0,"['3', '2', '4', '3', '3', '1']","[117.74664660007693, 118.00280120002571, 118.29871540004387, 119.20282140001655, 119.48263590002898, 119.75465700007044]",6,6,# # # # # #,None,117.74664660007693,118.00280120002571,118.29871540004387,119.20282140001655,119.48263590002898,119.75465700007044,-0.09205879992805421,0.2561545999487862,0.29591420001816005,0.9041059999726713,0.279814500012435,0.2720211000414565
160,0,0.0,2,False,0.0,None,right,False,2,1,0,enc,0,0,1,[],[],7,6,2 4 4 2 1 3,4,0.0,0.0,0.0,0.0,0.0,0.0,0,0.0,0.0,0.0,0.0,0.0
161,1,3.3198649999685585,2,True,0.5,acc,right,True,2,1,3,ret,1,3,1,"['4', '2', '2', '2', '1', '3']","[6.974894700106233, 7.238856200012378, 8.15084180003032, 9.087649599998258, 10.062890900066122, 10.294759700074792]",7,6,# # # # # #,None,6.974894700106233,7.238856200012378,8.15084180003032,9.087649599998258,10.062890900066122,10.294759700074792,NaN,0.26396149990614504,0.9119856000179425,0.9368077999679372,0.9752413000678644,0.2318688000086695
162,2,0.0,3,False,0.0,None,right,False,2,1,0,enc,0,0,1,[],[],7,6,2 4 3 1 4 4,6,0.0,0.0,0.0,0.0,0.0,0.0,0,0.0,0.0,0.0,0.0,0.0
163,3,4.350525400019252,3,True,0.5,acc,right,False,2,1,6,ret,1,10,1,"['2', '4', '3', '1', '4', '4']","[13.840349200065248, 16.887008900055662, 17.326895100064576, 17.63884600007441, 17.990874800016172, 18.1908746000845]",7,6,# # # # # #,None,13.840349200065248,16.887008900055662,17.326895100064576,17.63884600007441,17.990874800016172,18.1908746000845,-2.954410500009544,3.046659699990414,0.4398862000089139,0.3119509000098333,0.3520287999417633,0.1999998000683263
164,4,0.0,3,False,0.0,None,right,False,2,1,0,enc,0,0,1,[],[],7,6,3 3 4 4 4 1,6,0.0,0.0,0.0,0.0,0.0,0.0,0,0.0,0.0,0.0,0.0,0.0
165,5,2.575920899980701,3,True,0.5,acc,right,True,2,1,4,ret,1,4,1,"['4', '3', '3', '4', '4', '1']","[26.71093440009281, 27.560346900019795, 27.902865900075994, 28.926920300000347, 29.110949800000526, 29.286855300073512]",7,6,# # # # # #,None,26.71093440009281,27.560346900019795,27.902865900075994,28.926920300000347,29.110949800000526,29.286855300073512,2.020059800008312,0.8494124999269843,0.34251900005619973,1.0240543999243528,0.18402950000017881,0.1759055000729859
166,6,0.0,2,False,0.0,None,right,False,2,1,0,enc,0,0,1,[],[],7,6,4 1 2 3 3 2,4,0.0,0.0,0.0,0.0,0.0,0.0,0,0.0,0.0,0.0,0.0,0.0
167,7,1.5680086999200284,2,True,0.5,acc,right,False,2,1,6,ret,1,10,1,"['4', '1', '2', '3', '3', '2']","[38.134902000078, 38.38280370004941, 39.063136400072835, 39.286882500047795, 39.51253370009363, 39.70291069999803]",7,6,# # # # # #,None,38.134902000078,38.38280370004941,39.063136400072835,39.286882500047795,39.51253370009363,39.70291069999803,2.3480467000044882,0.24790169997140765,0.6803327000234276,0.2237460999749601,0.2256512000458315,0.1903769999044016
168,8,0.0,3,False,0.0,None,right,False,2,1,0,enc,0,0,0,[],[],7,6,3 4 2 1 2 2,6,0.0,0.0,0.0,0.0,0.0,0.0,0,0.0,0.0,0.0,0.0,0.0
169,9,3.9680257000727583,3,True,0.5,acc,right,True,2,1,4,ret,1,4,0,"['2', '2', '1', '3', '4', '2']","[45.82288380002137, 46.102927200030535, 46.446864500059746, 48.37489310000092, 48.654826900106855, 49.79090950009413]",7,6,# # # # # #,None,45.82288380002137,46.102927200030535,46.446864500059746,48.37489310000092,48.654826900106855,49.79090950009413,-0.38002689997665584,0.2800434000091627,0.34393730002921075,1.9280285999411717,0.2799338001059368,1.136082599987276
170,10,0.0,2,False,0.0,None,right,False,2,1,0,enc,0,0,0,[],[],7,6,4 4 3 4 3 3,4,0.0,0.0,0.0,0.0,0.0,0.0,0,0.0,0.0,0.0,0.0,0.0
171,11,2.710299400030636,2,True,0.5,acc,right,True,2,1,3,ret,1,3,0,"['3', '3', '3', '4', '4', '3']","[57.98456800007261, 58.22282070002984, 59.15087510005105, 59.40687770000659, 60.414843900012784, 60.69486740010325]",7,6,# # # # # #,None,57.98456800007261,58.22282070002984,59.15087510005105,59.40687770000659,60.414843900012784,60.69486740010325,1.6936584999784827,0.2382526999572292,0.9280544000212103,0.2560025999555364,1.0079662000061944,0.28002350009046495
172,12,0.0,2,False,0.0,None,right,False,2,1,0,enc,0,0,0,[],[],7,6,4 1 4 1 4 2,4,0.0,0.0,0.0,0.0,0.0,0.0,0,0.0,0.0,0.0,0.0,0.0
173,13,4.655836999998428,2,True,0.5,acc,right,True,2,1,5,ret,1,5,0,"['2', '4', '4', '4', '1', '4']","[68.99887600005604, 69.31080930004828, 70.07082460005768, 72.28683510003611, 73.51880910003092, 73.65471300005447]",7,6,# # # # # #,None,68.99887600005604,69.31080930004828,70.07082460005768,72.28683510003611,73.51880910003092,73.65471300005447,1.8040085999527946,0.3119332999922335,0.7600153000093997,2.216010499978438,1.231973999994807,0.1359039000235498
174,14,0.0,3,False,0.0,None,right,False,2,1,0,enc,0,0,1,[],[],7,6,2 1 4 3 1 2,6,0.0,0.0,0.0,0.0,0.0,0.0,0,0.0,0.0,0.0,0.0,0.0
175,15,1.2963314999360591,3,True,0.5,acc,right,False,2,1,6,ret,1,10,1,"['2', '1', '4', '3', '1', '2']","[80.71085530007258, 80.91885350004304, 81.19077540002763, 81.63874530000612, 81.85608380008489, 82.00718680000864]",7,6,# # # # # #,None,80.71085530007258,80.91885350004304,81.19077540002763,81.63874530000612,81.85608380008489,82.00718680000864,0.5561423000181094,0.20799819997046143,0.2719218999845907,0.4479698999784887,0.21733850007876754,0.15110299992375076
176,16,0.0,2,False,0.0,None,right,False,2,1,0,enc,0,0,0,[],[],7,6,4 4 4 2 4 2,4,0.0,0.0,0.0,0.0,0.0,0.0,0,0.0,0.0,0.0,0.0,0.0
177,17,3.5056839999742806,2,True,0.5,acc,right,True,2,1,4,ret,1,4,0,"['2', '4', '2', '2', '4', '2']","[91.86280680005439, 92.15081270004157, 92.45487300003879, 93.19905680010561, 94.07880220003426, 95.36849080002867]",7,6,# # # # # #,None,91.86280680005439,92.15081270004157,92.45487300003879,93.19905680010561,94.07880220003426,95.36849080002867,3.3556200000457466,0.2880058999871835,0.30406029999721795,0.7441838000668213,0.8797453999286518,1.289688599994406
178,18,0.0,3,False,0.0,None,right,False,2,1,0,enc,0,0,0,[],[],7,6,3 1 4 4 2 4,6,0.0,0.0,0.0,0.0,0.0,0.0,0,0.0,0.0,0.0,0.0,0.0
179,19,3.392114100046456,3,True,0.5,acc,right,True,2,1,3,ret,1,3,0,"['4', '2', '4', '1', '3', '4']","[102.58280830003787, 102.87070790003054, 103.34273510007188, 105.27891350002028, 105.49486540001817, 105.97492240008432]",7,6,# # # # # #,None,102.58280830003787,102.87070790003054,103.34273510007188,105.27891350002028,105.49486540001817,105.97492240008432,0.7143175000092015,0.2878995999926701,0.4720272000413388,1.9361783999484032,0.21595189999789,0.4800570000661537
180,20,0.0,3,False,0.0,None,right,False,2,1,0,enc,0,0,0,[],[],7,6,1 4 2 2 3 4,6,0.0,0.0,0.0,0.0,0.0,0.0,0,0.0,0.0,0.0,0.0,0.0
181,21,2.0720374999800697,3,True,0.5,acc,right,True,2,1,4,ret,1,4,0,"['4', '3', '2', '1', '4', '2']","[112.6227918000659, 113.03888020000886, 113.36684050003532, 114.22277540003415, 114.45466610009316, 114.69482930004597]",7,6,# # # # # #,None,112.6227918000659,113.03888020000886,113.36684050003532,114.22277540003415,114.45466610009316,114.69482930004597,0.14786939998157322,0.4160883999429643,0.3279603000264615,0.8559348999988288,0.23189070005901158,0.24016319995280355
182,22,0.0,2,False,0.0,None,right,False,2,1,0,enc,0,0,1,[],[],7,6,1 1 2 1 1 3,4,0.0,0.0,0.0,0.0,0.0,0.0,0,0.0,0.0,0.0,0.0,0.0
183,23,1.544124300009571,2,True,0.5,acc,right,False,2,1,6,ret,1,10,1,"['1', '1', '2', '1', '1', '3']","[123.65478930005338, 123.88687770010438, 124.37502660008613, 124.6147656000685, 124.99875100003555, 125.19891360006295]",7,6,# # # # # #,None,123.65478930005338,123.88687770010438,124.37502660008613,124.6147656000685,124.99875100003555,125.19891360006295,2.4599600000074133,0.23208840005099773,0.48814889998175204,0.23973899998236448,0.3839853999670595,0.20016260002739727
184,0,0.0,2,False,0.0,None,right,False,2,1,0,enc,0,0,1,[],[],8,6,4 2 3 2 2 2,4,0.0,0.0,0.0,0.0,0.0,0.0,0,0.0,0.0,0.0,0.0,0.0
185,1,2.384087100042961,2,True,0.5,acc,right,True,2,1,5,ret,1,5,1,"['4', '2', '2', '2', '2', '2']","[7.151914600050077, 7.431970600038767, 8.719924500095658, 8.953574100043625, 9.383892700076103, 9.536001700093038]",8,6,# # # # # #,None,7.151914600050077,7.431970600038767,8.719924500095658,8.953574100043625,9.383892700076103,9.536001700093038,NaN,0.28005599998869,1.2879539000568911,0.23364959994796664,0.43031860003247857,0.15210900001693517
186,2,0.0,2,False,0.0,None,right,False,2,1,0,enc,0,0,1,[],[],8,6,1 1 1 3 1 4,4,0.0,0.0,0.0,0.0,0.0,0.0,0,0.0,0.0,0.0,0.0,0.0
187,3,1.3051243999507278,2,True,0.5,acc,right,False,2,1,6,ret,1,10,1,"['1', '1', '1', '3', '1', '4']","[17.55997370008845, 17.727970300009474, 18.184034900041297, 18.368104599998333, 18.73595630005002, 18.865098100039177]",8,6,# # # # # #,None,17.55997370008845,17.727970300009474,18.184034900041297,18.368104599998333,18.73595630005002,18.865098100039177,1.5239719999954104,0.16799659992102534,0.4560646000318229,0.18406969995703548,0.36785170005168766,0.12914179998915642
188,4,0.0,2,False,0.0,None,right,False,2,1,0,enc,0,0,0,[],[],8,6,2 1 2 1 3 4,4,0.0,0.0,0.0,0.0,0.0,0.0,0,0.0,0.0,0.0,0.0,0.0
189,5,1.6079908000538126,2,True,0.5,acc,right,True,2,1,2,ret,1,2,0,"['4', '3', '2', '1', '2', '1']","[26.968049500021152, 27.240033600013703, 27.855984800029546, 28.10404390003532, 28.37591960001737, 28.576040300074965]",8,6,# # # # # #,None,26.968049500021152,27.240033600013703,27.855984800029546,28.10404390003532,28.37591960001737,28.576040300074965,1.6029513999819756,0.2719840999925509,0.6159512000158429,0.2480591000057757,0.2718756999820471,0.20012070005759597
190,6,0.0,2,False,0.0,None,right,False,2,1,0,enc,0,0,1,[],[],8,6,1 3 1 4 2 3,4,0.0,0.0,0.0,0.0,0.0,0.0,0,0.0,0.0,0.0,0.0,0.0
191,7,1.2879868999589237,2,True,0.5,acc,right,False,2,1,6,ret,1,10,1,"['1', '3', '1', '4', '2', '3']","[36.68795770010911, 36.896201100084, 37.20796160004102, 37.45593150006607, 37.75194220000412, 37.97594460006803]",8,6,# # # # # #,None,36.68795770010911,36.896201100084,37.20796160004102,37.45593150006607,37.75194220000412,37.97594460006803,1.6119174000341445,0.20824339997489005,0.3117604999570176,0.2479699000250548,0.2960106999380514,0.2240024000639096
192,8,0.0,3,False,0.0,None,right,False,2,1,0,enc,0,0,1,[],[],8,6,1 4 3 3 2 2,6,0.0,0.0,0.0,0.0,0.0,0.0,0,0.0,0.0,0.0,0.0,0.0
193,9,2.727876399992965,3,True,0.5,acc,right,True,2,1,5,ret,1,5,1,"['1', '4', '3', '3', '3', '2']","[44.17606000008527, 44.48009700002149, 44.9137624000432, 46.54406320000999, 46.711945700109936, 46.90393640007824]",8,6,# # # # # #,None,44.17606000008527,44.48009700002149,44.9137624000432,46.54406320000999,46.711945700109936,46.90393640007824,-0.29988459998276085,0.3040369999362156,0.4336654000217095,1.6303007999667898,0.16788250009994954,0.19199069996830076
194,10,0.0,2,False,0.0,None,right,False,2,1,0,enc,0,0,0,[],[],8,6,4 3 3 4 4 1,4,0.0,0.0,0.0,0.0,0.0,0.0,0,0.0,0.0,0.0,0.0,0.0
195,11,2.991903400048613,2,True,0.5,acc,right,False,2,1,6,ret,1,10,0,"['1', '4', '4', '3', '3', '4']","[55.06403240002692, 55.32793790008873, 56.88828569999896, 57.24790340010077, 57.60070890001953, 58.05593580007553]",8,6,# # # # # #,None,55.06403240002692,55.32793790008873,56.88828569999896,57.24790340010077,57.60070890001953,58.05593580007553,1.6600959999486804,0.26390550006181,1.5603477999102324,0.3596177001018077,0.35280549991875887,0.4552269000560045
196,12,0.0,2,False,0.0,None,right,False,2,1,0,enc,0,0,0,[],[],8,6,3 1 3 2 4 2,4,0.0,0.0,0.0,0.0,0.0,0.0,0,0.0,0.0,0.0,0.0,0.0
197,13,7.406362699926831,2,True,0.5,acc,right,True,2,1,3,ret,1,3,0,"['3', '4', '3', '2', '1', '3']","[63.61118900007568, 68.72038120008074, 69.74380890000612, 69.95994690002408, 70.86386880010832, 71.01755170000251]",8,6,# # # # # #,None,63.61118900007568,68.72038120008074,69.74380890000612,69.95994690002408,70.86386880010832,71.01755170000251,-0.944746799999848,5.1091922000050545,1.023427699925378,0.21613800001796335,0.9039219000842422,0.15368289989419281
198,14,0.0,3,False,0.0,None,right,False,2,1,0,enc,0,0,1,[],[],8,6,1 3 2 3 3 3,6,0.0,0.0,0.0,0.0,0.0,0.0,0,0.0,0.0,0.0,0.0,0.0
199,15,1.000476100016385,3,True,0.5,acc,right,False,2,1,6,ret,1,10,1,"['1', '3', '2', '3', '3', '3']","[77.92796860006638, 78.16968040005304, 78.39198170008603, 78.61594660009723, 78.76801370002795, 78.92844470008276]",8,6,# # # # # #,None,77.92796860006638,78.16968040005304,78.39198170008603,78.61594660009723,78.76801370002795,78.92844470008276,0.4104169000638649,0.24171179998666048,0.22230130003299564,0.22396490001119673,0.15206709993071854,0.16043100005481392
200,16,0.0,3,False,0.0,None,right,False,2,1,0,enc,0,0,1,[],[],8,6,4 2 4 4 2 4,6,0.0,0.0,0.0,0.0,0.0,0.0,0,0.0,0.0,0.0,0.0,0.0
201,17,1.2252442999742923,3,True,0.5,acc,right,True,2,1,3,ret,1,3,1,"['4', '2', '4', '2', '4', '2']","[85.11193130002357, 85.33599350007717, 85.57594460004475, 85.82402330008335, 86.08155160001479, 86.33717559999786]",8,6,# # # # # #,None,85.11193130002357,85.33599350007717,85.57594460004475,85.82402330008335,86.08155160001479,86.33717559999786,-0.3165134000591934,0.224062200053595,0.23995109996758401,0.24807870003860444,0.2575282999314368,0.2556239999830723
202,18,0.0,3,False,0.0,None,right,False,2,1,0,enc,0,0,0,[],[],8,6,1 2 2 3 1 1,6,0.0,0.0,0.0,0.0,0.0,0.0,0,0.0,0.0,0.0,0.0,0.0
203,19,1.5521023999899626,3,True,0.5,acc,right,True,2,1,5,ret,1,5,0,"['1', '1', '3', '2', '1', '1']","[93.41590170003474, 93.64007580000907, 93.91186650004238, 94.55194080004003, 94.7678943000501, 94.9680041000247]",8,6,# # # # # #,None,93.41590170003474,93.64007580000907,93.91186650004238,94.55194080004003,94.7678943000501,94.9680041000247,0.5787261000368744,0.22417409997433424,0.2717907000333071,0.6400742999976501,0.21595350001007318,0.200109799974598
204,20,0.0,3,False,0.0,None,right,False,2,1,0,enc,0,0,0,[],[],8,6,2 3 1 1 3 4,6,0.0,0.0,0.0,0.0,0.0,0.0,0,0.0,0.0,0.0,0.0,0.0
205,21,2.4879774999571964,3,True,0.5,acc,right,True,2,1,3,ret,1,3,0,"['4', '3', '1', '3', '2', '1']","[101.87993720010854, 102.18387750000693, 102.41591800004244, 103.91992210003082, 104.17596450005658, 104.36791470006574]",8,6,# # # # # #,None,101.87993720010854,102.18387750000693,102.41591800004244,103.91992210003082,104.17596450005658,104.36791470006574,0.4119331000838429,0.303940299898386,0.23204050003550947,1.5040040999883786,0.2560424000257626,0.19195020000915974
206,22,0.0,3,False,0.0,None,right,False,2,1,0,enc,0,0,0,[],[],8,6,4 3 2 2 1 3,6,0.0,0.0,0.0,0.0,0.0,0.0,0,0.0,0.0,0.0,0.0,0.0
207,23,6.18736700003501,3,True,0.5,acc,right,True,2,1,3,ret,1,3,0,"['3', '1', '2', '3', '4', '2']","[107.91653370007407, 111.5198195000412, 111.70400000002701, 113.64000970008783, 113.79987070010975, 114.10390070010908]",8,6,# # # # # #,None,107.91653370007407,111.5198195000412,111.70400000002701,113.64000970008783,113.79987070010975,114.10390070010908,-2.9513809999916703,3.603285799967125,0.1841804999858141,1.936009700060822,0.1598610000219196,0.30402999999932945
