,Tn,MT,chunk,display_trial_feedback,feedback_dur,feedback_type,hand,is_error,item_dur,iti_dur,number_correct,phase,phase_type,points,recall_dir,response,response_time,run_number,seq_length,seq_str,trial_dur,P1,P2,P3,P4,P5,P6,IPI_0,IPI_1,IPI_2,IPI_3,IPI_4,IPI_5
0,0,0.0,3,False,0.0,None,right,False,2,1,0,enc,0,0,1,[],[],1,6,2 2 2 4 4 3,6,0.0,0.0,0.0,0.0,0.0,0.0,0,0.0,0.0,0.0,0.0,0.0
1,1,8.632152499999961,3,True,0.5,acc,right,True,2,1,2,ret,1,2,1,"['1', '1', '1', '4', '2', '3']","[6.085691900000029, 6.301848599999971, 9.389796899999965, 13.637802800000031, 14.317887599999949, 14.71784439999999]",1,6,# # # # # #,None,6.085691900000029,6.301848599999971,9.389796899999965,13.637802800000031,14.317887599999949,14.71784439999999,-0.4143080999999711,0.21615669999994225,3.0879482999999937,4.2480059000000665,0.6800847999999178,0.39995680000004086
2,2,0.0,3,False,0.0,None,right,False,2,1,0,enc,0,0,1,[],[],1,6,1 3 1 3 1 2,6,0.0,0.0,0.0,0.0,0.0,0.0,0,0.0,0.0,0.0,0.0,0.0
3,3,3.463833099999988,3,True,0.5,acc,right,True,2,1,0,ret,1,0,1,"['2', '2', '2', '4', '2', '3']","[30.013887100000034, 30.293813999999998, 30.693801099999973, 32.12645539999994, 33.093805299999985, 33.47772020000002]",1,6,# # # # # #,None,30.013887100000034,30.293813999999998,30.693801099999973,32.12645539999994,33.093805299999985,33.47772020000002,8.796042700000044,0.279926899999964,0.3999870999999757,1.4326542999999674,0.9673499000000447,0.38391490000003614
4,4,0.0,3,False,0.0,None,right,False,2,1,0,enc,0,0,0,[],[],1,6,4 1 4 3 4 3,6,0.0,0.0,0.0,0.0,0.0,0.0,0,0.0,0.0,0.0,0.0,0.0
5,5,6.526445100000046,3,True,0.5,acc,right,False,2,1,6,ret,1,10,0,"['3', '4', '3', '4', '1', '4']","[42.231404, 42.75779799999998, 43.23780629999999, 47.413661400000024, 48.12578540000004, 48.757849100000044]",1,6,# # # # # #,None,42.231404,42.75779799999998,43.23780629999999,47.413661400000024,48.12578540000004,48.757849100000044,2.253683799999976,0.526393999999982,0.4800083000000086,4.175855100000035,0.7121240000000171,0.6320637000000033
6,6,0.0,2,False,0.0,None,right,False,2,1,0,enc,0,0,1,[],[],1,6,4 3 4 1 4 4,4,0.0,0.0,0.0,0.0,0.0,0.0,0,0.0,0.0,0.0,0.0,0.0
7,7,2.8879278000000568,2,True,0.5,acc,right,False,2,1,6,ret,1,10,1,"['4', '3', '4', '1', '4', '4']","[58.24574759999996, 58.73362610000004, 59.42168509999999, 59.877674400000046, 60.8456195, 61.133675400000016]",1,6,# # # # # #,None,58.24574759999996,58.73362610000004,59.42168509999999,59.877674400000046,60.8456195,61.133675400000016,2.9878984999999147,0.48787850000007893,0.6880589999999529,0.45598930000005566,0.9679450999999517,0.2880559000000176
8,8,0.0,2,False,0.0,None,right,False,2,1,0,enc,0,0,0,[],[],1,6,4 1 3 3 1 4,4,0.0,0.0,0.0,0.0,0.0,0.0,0,0.0,0.0,0.0,0.0,0.0
9,9,16.551816099999996,2,True,0.5,acc,right,True,2,1,3,ret,1,3,0,"['4', '4', '3', '2', '1', '1']","[70.8056626, 71.11770669999999, 86.12577150000004, 86.62962489999995, 86.92579860000001, 87.3574787]",1,6,# # # # # #,None,70.8056626,71.11770669999999,86.12577150000004,86.62962489999995,86.92579860000001,87.3574787,3.1719871999999896,0.31204409999998006,15.008064800000056,0.5038533999999117,0.29617370000005394,0.4316800999999941
10,10,0.0,2,False,0.0,None,right,False,2,1,0,enc,0,0,0,[],[],1,6,1 3 4 2 2 2,4,0.0,0.0,0.0,0.0,0.0,0.0,0,0.0,0.0,0.0,0.0,0.0
11,11,6.679897099999947,2,True,0.5,acc,right,False,2,1,6,ret,1,10,0,"['2', '2', '2', '4', '3', '1']","[97.17371600000001, 97.44567010000003, 99.25359860000003, 99.76558499999999, 103.46165310000004, 103.85361309999996]",1,6,# # # # # #,None,97.17371600000001,97.44567010000003,99.25359860000003,99.76558499999999,103.46165310000004,103.85361309999996,3.3162373000000116,0.2719541000000163,1.8079285000000027,0.5119863999999552,3.6960681000000477,0.39195999999992637
12,12,0.0,3,False,0.0,None,right,False,2,1,0,enc,0,0,0,[],[],1,6,4 1 1 1 4 3,6,0.0,0.0,0.0,0.0,0.0,0.0,0,0.0,0.0,0.0,0.0,0.0
13,13,3.9119629999999006,3,True,0.5,acc,right,False,2,1,6,ret,1,10,0,"['3', '4', '1', '1', '1', '4']","[111.93359380000004, 112.6055457, 113.48565069999995, 114.53371179999999, 114.98161049999999, 115.84555679999994]",1,6,# # # # # #,None,111.93359380000004,112.6055457,113.48565069999995,114.53371179999999,114.98161049999999,115.84555679999994,1.5799807000000783,0.6719518999999536,0.8801049999999577,1.0480611000000408,0.4478986999999961,0.8639462999999523
14,14,0.0,2,False,0.0,None,right,False,2,1,0,enc,0,0,1,[],[],1,6,1 2 3 4 3 1,4,0.0,0.0,0.0,0.0,0.0,0.0,0,0.0,0.0,0.0,0.0,0.0
15,15,3.991955299999972,2,True,0.5,acc,right,True,2,1,3,ret,1,3,1,"['1', '2', '3', '2', '4', '3']","[125.6136027, 125.98194409999996, 127.14961879999998, 127.58158960000003, 129.17365570000004, 129.60555799999997]",1,6,# # # # # #,None,125.6136027,125.98194409999996,127.14961879999998,127.58158960000003,129.17365570000004,129.60555799999997,3.268045900000061,0.36834139999996296,1.1676747000000205,0.4319708000000446,1.592066100000011,0.43190229999993335
16,0,0.0,3,False,0.0,None,right,False,2,1,0,enc,0,0,1,[],[],1,6,4 2 2 1 1 2,6,0.0,0.0,0.0,0.0,0.0,0.0,0,0.0,0.0,0.0,0.0,0.0
17,1,2.4158815000000686,3,True,0.5,acc,right,True,2,1,5,ret,1,5,1,"['4', '2', '2', '1', '2', '2']","[7.902332099999967, 8.822362999999996, 9.054279999999949, 9.766396900000018, 10.078328800000008, 10.318213600000036]",1,6,# # # # # #,None,7.902332099999967,8.822362999999996,9.054279999999949,9.766396900000018,10.078328800000008,10.318213600000036,NaN,0.9200309000000289,0.23191699999995308,0.7121169000000691,0.3119318999999905,0.2398848000000271
18,2,0.0,3,False,0.0,None,right,False,2,1,0,enc,0,0,1,[],[],1,6,3 3 2 2 3 3,6,0.0,0.0,0.0,0.0,0.0,0.0,0,0.0,0.0,0.0,0.0,0.0
19,3,2.791909799999985,3,True,0.5,acc,right,False,2,1,6,ret,1,10,1,"['3', '3', '2', '2', '3', '3']","[18.302336800000035, 18.574423000000024, 19.238218699999948, 20.406190899999956, 20.886259699999982, 21.09424660000002]",1,6,# # # # # #,None,18.302336800000035,18.574423000000024,19.238218699999948,20.406190899999956,20.886259699999982,21.09424660000002,1.484123199999999,0.27208619999998973,0.6637956999999233,1.1679722000000083,0.4800688000000264,0.20798690000003717
20,4,0.0,2,False,0.0,None,right,False,2,1,0,enc,0,0,0,[],[],1,6,1 4 4 2 2 1,4,0.0,0.0,0.0,0.0,0.0,0.0,0,0.0,0.0,0.0,0.0,0.0
21,5,8.319881399999987,2,True,0.5,acc,right,True,2,1,5,ret,1,5,0,"['1', '2', '2', '2', '4', '1']","[31.44620150000003, 31.79834960000005, 36.062329100000056, 36.4862521, 39.47027179999998, 39.766082900000015]",1,6,# # # # # #,None,31.44620150000003,31.79834960000005,36.062329100000056,36.4862521,39.47027179999998,39.766082900000015,3.8519549000000097,0.35214810000002217,4.263979500000005,0.4239229999999452,2.984019699999976,0.2958111000000372
22,6,0.0,3,False,0.0,None,right,False,2,1,0,enc,0,0,0,[],[],1,6,2 3 3 2 4 1,6,0.0,0.0,0.0,0.0,0.0,0.0,0,0.0,0.0,0.0,0.0,0.0
23,7,3.808143299999984,3,True,0.5,acc,right,False,2,1,6,ret,1,10,0,"['1', '4', '2', '3', '3', '2']","[47.758076500000016, 48.430124399999954, 49.254227000000014, 50.86216509999997, 51.09423479999998, 51.5662198]",1,6,# # # # # #,None,47.758076500000016,48.430124399999954,49.254227000000014,50.86216509999997,51.09423479999998,51.5662198,1.4919936000000007,0.6720478999999386,0.8241026000000602,1.6079380999999557,0.23206970000001093,0.47198500000001786
24,8,0.0,2,False,0.0,None,right,False,2,1,0,enc,0,0,0,[],[],1,6,4 3 2 1 3 4,4,0.0,0.0,0.0,0.0,0.0,0.0,0,0.0,0.0,0.0,0.0,0.0
25,9,6.831774900000028,2,True,0.5,acc,right,True,2,1,4,ret,1,4,0,"['4', '3', '1', '2', '4', '3']","[60.734412099999986, 61.254049699999996, 64.19015579999996, 64.49422919999995, 67.16611750000004, 67.56618700000001]",1,6,# # # # # #,None,60.734412099999986,61.254049699999996,64.19015579999996,64.49422919999995,67.16611750000004,67.56618700000001,2.668192299999987,0.51963760000001,2.936106099999961,0.30407339999999294,2.6718883000000915,0.4000694999999723
26,10,0.0,2,False,0.0,None,right,False,2,1,0,enc,0,0,1,[],[],1,6,4 3 3 1 1 2,4,0.0,0.0,0.0,0.0,0.0,0.0,0,0.0,0.0,0.0,0.0,0.0
27,11,4.055949199999986,2,True,0.5,acc,right,True,2,1,5,ret,1,5,1,"['4', '3', '3', '1', '4', '2']","[76.87824260000002, 77.31817439999998, 78.60621809999998, 79.28613419999999, 80.26223270000003, 80.93419180000001]",1,6,# # # # # #,None,76.87824260000002,77.31817439999998,78.60621809999998,79.28613419999999,80.26223270000003,80.93419180000001,2.812055600000008,0.4399317999999539,1.288043700000003,0.679916100000014,0.9760985000000346,0.6719590999999809
28,12,0.0,3,False,0.0,None,right,False,2,1,0,enc,0,0,0,[],[],1,6,2 3 4 2 2 1,6,0.0,0.0,0.0,0.0,0.0,0.0,0,0.0,0.0,0.0,0.0,0.0
29,13,4.599977599999988,3,True,0.5,acc,right,False,2,1,6,ret,1,10,0,"['1', '2', '2', '4', '3', '2']","[87.6862059, 88.17407090000006, 88.44620169999996, 90.59820579999996, 91.73422330000005, 92.28618349999999]",1,6,# # # # # #,None,87.6862059,88.17407090000006,88.44620169999996,90.59820579999996,91.73422330000005,92.28618349999999,0.2520140999999967,0.48786500000005617,0.27213079999989986,2.152004099999999,1.1360175000000936,0.5519601999999395
30,14,0.0,2,False,0.0,None,right,False,2,1,0,enc,0,0,1,[],[],1,6,4 2 3 4 2 1,4,0.0,0.0,0.0,0.0,0.0,0.0,0,0.0,0.0,0.0,0.0,0.0
31,15,4.384003199999938,2,True,0.5,acc,right,True,2,1,1,ret,1,1,1,"['4', '3', '2', '1', '3', '4']","[102.40624460000004, 102.85415039999998, 103.55851919999998, 104.02251690000003, 106.42212419999998, 106.79024779999997]",1,6,# # # # # #,None,102.40624460000004,102.85415039999998,103.55851919999998,104.02251690000003,106.42212419999998,106.79024779999997,3.6200611000000436,0.44790579999994407,0.7043687999999975,0.4639977000000499,2.399607299999957,0.3681235999999899
32,16,0.0,2,False,0.0,None,right,False,2,1,0,enc,0,0,1,[],[],1,6,1 4 1 3 2 4,4,0.0,0.0,0.0,0.0,0.0,0.0,0,0.0,0.0,0.0,0.0,0.0
33,17,5.407960500000058,2,True,0.5,acc,right,True,2,1,4,ret,1,4,1,"['1', '4', '2', '3', '3', '4']","[116.84615959999996, 117.382067, 119.11813170000005, 119.48609309999995, 121.92610560000003, 122.25412010000002]",1,6,# # # # # #,None,116.84615959999996,117.382067,119.11813170000005,119.48609309999995,121.92610560000003,122.25412010000002,3.55591179999999,0.5359074000000419,1.7360647000000426,0.3679613999998992,2.44001250000008,0.32801449999999477
34,18,0.0,3,False,0.0,None,right,False,2,1,0,enc,0,0,0,[],[],1,6,2 3 3 3 3 4,6,0.0,0.0,0.0,0.0,0.0,0.0,0,0.0,0.0,0.0,0.0,0.0
35,19,3.1600550000000567,3,True,0.5,acc,right,False,2,1,6,ret,1,10,0,"['4', '3', '3', '3', '3', '2']","[129.4940378, 131.0540264, 131.38206130000003, 131.71014049999997, 132.09402420000004, 132.65409280000006]",1,6,# # # # # #,None,129.4940378,131.0540264,131.38206130000003,131.71014049999997,132.09402420000004,132.65409280000006,0.7399176999999781,1.559988599999997,0.3280349000000342,0.32807919999993373,0.38388370000006944,0.5600686000000223
36,20,0.0,3,False,0.0,None,right,False,2,1,0,enc,0,0,1,[],[],1,6,1 1 3 2 2 4,6,0.0,0.0,0.0,0.0,0.0,0.0,0,0.0,0.0,0.0,0.0,0.0
37,21,2.2800852999998824,3,True,0.5,acc,right,False,2,1,6,ret,1,10,1,"['1', '1', '3', '2', '2', '4']","[140.26994450000007, 140.5192664000001, 141.1580441000001, 141.8941072, 142.0941196000001, 142.55002979999995]",1,6,# # # # # #,None,140.26994450000007,140.5192664000001,141.1580441000001,141.8941072,142.0941196000001,142.55002979999995,1.1158517000000074,0.24932190000004084,0.6387776999999915,0.7360630999999103,0.20001240000010512,0.45591019999983473
38,22,0.0,2,False,0.0,None,right,False,2,1,0,enc,0,0,0,[],[],1,6,4 1 1 1 4 4,4,0.0,0.0,0.0,0.0,0.0,0.0,0,0.0,0.0,0.0,0.0,0.0
39,23,5.415986299999987,2,True,0.5,acc,right,True,2,1,2,ret,1,2,0,"['4', '1', '3', '2', '1', '1']","[154.68601820000003, 155.18210309999995, 159.03803850000008, 159.422008, 159.71789949999993, 160.10200450000002]",1,6,# # # # # #,None,154.68601820000003,155.18210309999995,159.03803850000008,159.422008,159.71789949999993,160.10200450000002,5.6359884000000875,0.49608489999991434,3.855935400000135,0.383969499999921,0.29589149999992514,0.3841050000000905
40,0,0.0,3,False,0.0,None,right,False,2,1,0,enc,0,0,1,[],[],2,6,3 2 2 3 2 3,6,0.0,0.0,0.0,0.0,0.0,0.0,0,0.0,0.0,0.0,0.0,0.0
41,1,2.375908999999865,3,True,0.5,acc,right,False,2,1,6,ret,1,10,1,"['3', '2', '2', '3', '2', '3']","[5.630376200000001, 6.046338599999899, 6.334389299999884, 7.2782609999999295, 7.654351200000065, 8.006285199999866]",2,6,# # # # # #,None,5.630376200000001,6.046338599999899,6.334389299999884,7.2782609999999295,7.654351200000065,8.006285199999866,NaN,0.4159623999998985,0.2880506999999852,0.9438717000000452,0.37609020000013516,0.351933999999801
42,2,0.0,2,False,0.0,None,right,False,2,1,0,enc,0,0,1,[],[],2,6,2 4 4 4 4 1,4,0.0,0.0,0.0,0.0,0.0,0.0,0,0.0,0.0,0.0,0.0,0.0
43,3,2.4878919999998743,2,True,0.5,acc,right,True,2,1,5,ret,1,5,1,"['2', '4', '4', '4', '4', '2']","[17.63038419999998, 18.06233640000005, 18.654372199999898, 18.95835390000002, 19.758413699999892, 20.118276199999855]",2,6,# # # # # #,None,17.63038419999998,18.06233640000005,18.654372199999898,18.95835390000002,19.758413699999892,20.118276199999855,3.1240990000001148,0.43195220000006884,0.5920357999998487,0.30398170000012215,0.8000597999998718,0.3598624999999629
44,4,0.0,3,False,0.0,None,right,False,2,1,0,enc,0,0,1,[],[],2,6,1 4 1 4 4 3,6,0.0,0.0,0.0,0.0,0.0,0.0,0,0.0,0.0,0.0,0.0,0.0
45,5,3.0399757000000136,3,True,0.5,acc,right,False,2,1,6,ret,1,10,1,"['1', '4', '1', '4', '4', '3']","[27.270234899999878, 27.58236029999989, 28.214311799999905, 29.5104409999999, 29.774264099999982, 30.31021059999989]",2,6,# # # # # #,None,27.270234899999878,27.58236029999989,28.214311799999905,29.5104409999999,29.774264099999982,30.31021059999989,0.6519587000000229,0.31212540000001354,0.6319515000000138,1.2961291999999958,0.26382310000008147,0.5359464999999091
46,6,0.0,3,False,0.0,None,right,False,2,1,0,enc,0,0,0,[],[],2,6,1 3 1 3 1 3,6,0.0,0.0,0.0,0.0,0.0,0.0,0,0.0,0.0,0.0,0.0,0.0
47,7,3.1678810000000794,3,True,0.5,acc,right,False,2,1,6,ret,1,10,0,"['3', '1', '3', '1', '3', '1']","[38.18235149999987, 38.590215199999875, 39.00634119999995, 40.51025249999998, 40.9341758999999, 41.35023249999995]",2,6,# # # # # #,None,38.18235149999987,38.590215199999875,39.00634119999995,40.51025249999998,40.9341758999999,41.35023249999995,1.3721408999999767,0.40786370000000716,0.4161260000000766,1.503911300000027,0.42392339999992146,0.4160566000000472
48,8,0.0,2,False,0.0,None,right,False,2,1,0,enc,0,0,0,[],[],2,6,2 1 4 4 4 2,4,0.0,0.0,0.0,0.0,0.0,0.0,0,0.0,0.0,0.0,0.0,0.0
49,9,9.855992499999957,2,True,0.5,acc,right,True,2,1,0,ret,1,0,0,"['4', '2', '3', '2', '4', '1']","[51.15830159999996, 52.374213600000076, 59.718245099999876, 60.08630840000001, 60.446304600000076, 61.014294099999915]",2,6,# # # # # #,None,51.15830159999996,52.374213600000076,59.718245099999876,60.08630840000001,60.446304600000076,61.014294099999915,3.3080691000000115,1.2159120000001167,7.344031499999801,0.36806330000013077,0.3599962000000687,0.5679894999998396
50,10,0.0,3,False,0.0,None,right,False,2,1,0,enc,0,0,0,[],[],2,6,3 3 4 1 2 3,6,0.0,0.0,0.0,0.0,0.0,0.0,0,0.0,0.0,0.0,0.0,0.0
51,11,8.769407900000033,3,True,0.5,acc,right,True,2,1,5,ret,1,5,0,"['3', '2', '1', '4', '3', '4']","[68.8782036, 70.09430750000001, 70.7421812, 75.75025400000004, 77.27015340000003, 77.64761150000004]",2,6,# # # # # #,None,68.8782036,70.09430750000001,70.7421812,75.75025400000004,77.27015340000003,77.64761150000004,1.3639095000000907,1.2161039000000073,0.647873699999991,5.008072800000036,1.5198993999999857,0.37745810000001256
52,12,0.0,2,False,0.0,None,right,False,2,1,0,enc,0,0,0,[],[],2,6,4 2 2 2 3 1,4,0.0,0.0,0.0,0.0,0.0,0.0,0,0.0,0.0,0.0,0.0,0.0
53,13,4.8480440000000735,2,True,0.5,acc,right,False,2,1,6,ret,1,10,0,"['1', '3', '2', '2', '2', '4']","[87.60624959999996, 88.13412160000007, 89.89420359999986, 90.15012030000003, 91.39815999999996, 92.45429360000003]",2,6,# # # # # #,None,87.60624959999996,88.13412160000007,89.89420359999986,90.15012030000003,91.39815999999996,92.45429360000003,3.4586380999999164,0.5278720000001158,1.7600819999997839,0.25591670000017075,1.2480396999999357,1.0561336000000665
54,14,0.0,3,False,0.0,None,right,False,2,1,0,enc,0,0,1,[],[],2,6,3 2 2 1 1 4,6,0.0,0.0,0.0,0.0,0.0,0.0,0,0.0,0.0,0.0,0.0,0.0
55,15,2.559970300000032,3,True,0.5,acc,right,True,2,1,5,ret,1,5,1,"['3', '2', '2', '1', '1', '3']","[99.81416669999999, 100.27018769999995, 100.65425579999987, 101.27014570000006, 101.56614220000006, 102.37413700000002]",2,6,# # # # # #,None,99.81416669999999,100.27018769999995,100.65425579999987,101.27014570000006,101.56614220000006,102.37413700000002,0.8598730999999589,0.45602099999996426,0.3840680999999222,0.6158899000001838,0.2959965000000011,0.8079947999999604
56,16,0.0,2,False,0.0,None,right,False,2,1,0,enc,0,0,0,[],[],2,6,4 3 2 1 2 2,4,0.0,0.0,0.0,0.0,0.0,0.0,0,0.0,0.0,0.0,0.0,0.0
57,17,5.231941699999879,2,True,0.5,acc,right,False,2,1,6,ret,1,10,0,"['2', '2', '1', '2', '3', '4']","[111.63816059999999, 111.90224839999996, 115.40607699999987, 115.97434909999993, 116.44614219999994, 116.87010229999987]",2,6,# # # # # #,None,111.63816059999999,111.90224839999996,115.40607699999987,115.97434909999993,116.44614219999994,116.87010229999987,2.764023599999973,0.26408779999997023,3.503828599999906,0.5682721000000583,0.4717931000000135,0.4239600999999311
58,18,0.0,2,False,0.0,None,right,False,2,1,0,enc,0,0,1,[],[],2,6,3 1 4 4 2 3,4,0.0,0.0,0.0,0.0,0.0,0.0,0,0.0,0.0,0.0,0.0,0.0
59,19,3.0719932000001786,2,True,0.5,acc,right,False,2,1,6,ret,1,10,1,"['3', '1', '4', '4', '2', '3']","[126.68612319999988, 127.22202229999994, 128.27808830000004, 128.56616259999987, 129.4781519999999, 129.75811640000006]",2,6,# # # # # #,None,126.68612319999988,127.22202229999994,128.27808830000004,128.56616259999987,129.4781519999999,129.75811640000006,3.3160209000000123,0.5358991000000515,1.0560660000001008,0.2880742999998347,0.9119894000000386,0.27996440000015355
60,20,0.0,3,False,0.0,None,right,False,2,1,0,enc,0,0,0,[],[],2,6,1 1 4 4 3 2,6,0.0,0.0,0.0,0.0,0.0,0.0,0,0.0,0.0,0.0,0.0,0.0
61,21,5.983932099999947,3,True,0.5,acc,right,False,2,1,6,ret,1,10,0,"['2', '3', '4', '4', '1', '1']","[140.71819000000005, 141.37416819999999, 143.4700479999999, 146.11007889999996, 146.4540055, 146.7021221]",2,6,# # # # # #,None,140.71819000000005,141.37416819999999,143.4700479999999,146.11007889999996,146.4540055,146.7021221,4.460073599999987,0.6559781999999359,2.0958797999999206,2.640030900000056,0.3439266000000316,0.24811660000000302
62,22,0.0,2,False,0.0,None,right,False,2,1,0,enc,0,0,1,[],[],2,6,4 2 1 2 4 1,4,0.0,0.0,0.0,0.0,0.0,0.0,0,0.0,0.0,0.0,0.0,0.0
63,23,5.871984500000052,2,True,0.5,acc,right,True,2,1,3,ret,1,3,1,"['4', '2', '1', '4', '2', '2']","[156.20613409999987, 156.72604619999993, 157.94234489999985, 158.3261215, 160.70205899999996, 162.07811859999993]",2,6,# # # # # #,None,156.20613409999987,156.72604619999993,157.94234489999985,158.3261215,160.70205899999996,162.07811859999993,3.004011999999875,0.5199121000000559,1.2162986999999248,0.3837766000001466,2.3759374999999636,1.3760595999999623
64,0,0.0,2,False,0.0,None,right,False,2,1,0,enc,0,0,1,[],[],3,6,1 3 3 1 2 3,4,0.0,0.0,0.0,0.0,0.0,0.0,0,0.0,0.0,0.0,0.0,0.0
65,1,3.0880537000000463,2,True,0.5,acc,right,False,2,1,6,ret,1,10,1,"['1', '3', '3', '1', '2', '3']","[7.67467889999989, 7.994617600000083, 9.37865839999995, 9.71462049999991, 10.490824799999928, 10.762732599999936]",3,6,# # # # # #,None,7.67467889999989,7.994617600000083,9.37865839999995,9.71462049999991,10.490824799999928,10.762732599999936,NaN,0.3199387000001934,1.384040799999866,0.33596209999996063,0.7762043000000176,0.27190780000000814
66,2,0.0,3,False,0.0,None,right,False,2,1,0,enc,0,0,0,[],[],3,6,2 3 1 2 2 1,6,0.0,0.0,0.0,0.0,0.0,0.0,0,0.0,0.0,0.0,0.0,0.0
67,3,5.807938100000001,3,True,0.5,acc,right,True,2,1,4,ret,1,4,0,"['1', '2', '2', '3', '3', '1']","[17.794719700000087, 18.114621499999885, 18.426725600000054, 20.84283400000004, 23.10665629999994, 23.602657800000088]",3,6,# # # # # #,None,17.794719700000087,18.114621499999885,18.426725600000054,20.84283400000004,23.10665629999994,23.602657800000088,0.5319871000001513,0.31990179999979773,0.31210410000016964,2.4161083999999846,2.2638222999999016,0.49600150000014764
68,4,0.0,3,False,0.0,None,right,False,2,1,0,enc,0,0,1,[],[],3,6,4 1 3 2 2 1,6,0.0,0.0,0.0,0.0,0.0,0.0,0,0.0,0.0,0.0,0.0,0.0
69,5,2.7040160999999903,3,True,0.5,acc,right,False,2,1,6,ret,1,10,1,"['4', '1', '3', '2', '2', '1']","[31.098621299999877, 31.538625899999943, 32.29108350000001, 33.274661499999866, 33.53059280000002, 33.80263739999987]",3,6,# # # # # #,None,31.098621299999877,31.538625899999943,32.29108350000001,33.274661499999866,33.53059280000002,33.80263739999987,0.9959634999997888,0.4400046000000657,0.7524576000000707,0.9835779999998522,0.2559313000001566,0.27204459999984465
70,6,0.0,2,False,0.0,None,right,False,2,1,0,enc,0,0,0,[],[],3,6,3 4 4 3 4 1,4,0.0,0.0,0.0,0.0,0.0,0.0,0,0.0,0.0,0.0,0.0,0.0
71,7,5.360418600000003,2,True,0.5,acc,right,True,2,1,3,ret,1,3,0,"['1', '4', '4', '3', '3', '3']","[42.81865809999999, 43.33863059999999, 46.20264010000005, 46.61075729999993, 47.81066170000008, 48.179076699999996]",3,6,# # # # # #,None,42.81865809999999,43.33863059999999,46.20264010000005,46.61075729999993,47.81066170000008,48.179076699999996,2.5160207000001265,0.5199724999999944,2.8640095000000656,0.4081171999998787,1.1999044000001504,0.36841499999991356
72,8,0.0,3,False,0.0,None,right,False,2,1,0,enc,0,0,1,[],[],3,6,1 2 2 4 4 3,6,0.0,0.0,0.0,0.0,0.0,0.0,0,0.0,0.0,0.0,0.0,0.0
73,9,2.111809100000073,3,True,0.5,acc,right,False,2,1,6,ret,1,10,1,"['1', '2', '2', '4', '4', '3']","[54.5707382999999, 55.02654759999996, 55.322616200000084, 55.714557399999876, 56.0026421, 56.682547399999976]",3,6,# # # # # #,None,54.5707382999999,55.02654759999996,55.322616200000084,55.714557399999876,56.0026421,56.682547399999976,-0.10833840000009332,0.4558093000000554,0.296068600000126,0.39194119999979193,0.28808470000012676,0.6799052999999731
74,10,0.0,2,False,0.0,None,right,False,2,1,0,enc,0,0,0,[],[],3,6,4 4 3 2 3 3,4,0.0,0.0,0.0,0.0,0.0,0.0,0,0.0,0.0,0.0,0.0,0.0
75,11,5.264012899999899,2,True,0.5,acc,right,True,2,1,5,ret,1,5,0,"['3', '3', '2', '4', '4', '4']","[65.91455840000003, 66.13856379999993, 67.93859780000003, 68.33065770000007, 70.86663479999993, 71.17857129999993]",3,6,# # # # # #,None,65.91455840000003,66.13856379999993,67.93859780000003,68.33065770000007,70.86663479999993,71.17857129999993,2.732011000000057,0.22400539999989633,1.800034000000096,0.3920599000000493,2.5359770999998545,0.3119365000000016
76,12,0.0,3,False,0.0,None,right,False,2,1,0,enc,0,0,0,[],[],3,6,2 4 3 2 2 4,6,0.0,0.0,0.0,0.0,0.0,0.0,0,0.0,0.0,0.0,0.0,0.0
77,13,4.088221200000135,3,True,0.5,acc,right,False,2,1,6,ret,1,10,0,"['4', '2', '2', '3', '4', '2']","[78.03469769999992, 78.55462880000005, 78.81060449999995, 81.33051909999995, 81.69848460000003, 82.12291890000006]",3,6,# # # # # #,None,78.03469769999992,78.55462880000005,78.81060449999995,81.33051909999995,81.69848460000003,82.12291890000006,0.35612639999999374,0.5199311000001217,0.2559756999999081,2.519914599999993,0.3679655000000821,0.4244343000000299
78,14,0.0,2,False,0.0,None,right,False,2,1,0,enc,0,0,0,[],[],3,6,2 3 4 4 1 2,4,0.0,0.0,0.0,0.0,0.0,0.0,0,0.0,0.0,0.0,0.0,0.0
79,15,6.175903000000062,2,True,0.5,acc,right,True,2,1,4,ret,1,4,0,"['2', '1', '4', '4', '4', '3']","[91.25059179999994, 91.56261390000009, 92.53079400000001, 92.83453570000006, 97.0825342999999, 97.4264948]",3,6,# # # # # #,None,91.25059179999994,91.56261390000009,92.53079400000001,92.83453570000006,97.0825342999999,97.4264948,2.6276728999998795,0.3120221000001493,0.9681800999999268,0.30374170000004597,4.247998599999846,0.3439605000000938
80,16,0.0,3,False,0.0,None,right,False,2,1,0,enc,0,0,1,[],[],3,6,2 1 1 2 4 1,6,0.0,0.0,0.0,0.0,0.0,0.0,0,0.0,0.0,0.0,0.0,0.0
81,17,4.5278577999999925,3,True,0.5,acc,right,False,2,1,6,ret,1,10,1,"['2', '1', '1', '2', '4', '1']","[106.12250199999994, 106.47448639999993, 107.08255159999999, 108.75444289999996, 109.9464731999999, 110.65035979999993]",3,6,# # # # # #,None,106.12250199999994,106.47448639999993,107.08255159999999,108.75444289999996,109.9464731999999,110.65035979999993,2.19600719999994,0.3519843999999921,0.6080652000000555,1.6718912999999702,1.1920302999999421,0.7038866000000326
82,18,0.0,3,False,0.0,None,right,False,2,1,0,enc,0,0,0,[],[],3,6,3 2 1 1 3 2,6,0.0,0.0,0.0,0.0,0.0,0.0,0,0.0,0.0,0.0,0.0,0.0
83,19,8.256083799999942,3,True,0.5,acc,right,True,2,1,4,ret,1,4,0,"['2', '3', '1', '1', '3', '2']","[118.85057890000007, 119.32250290000002, 120.02663389999998, 125.2584652999999, 126.70656000000008, 127.10666270000002]",3,6,# # # # # #,None,118.85057890000007,119.32250290000002,120.02663389999998,125.2584652999999,126.70656000000008,127.10666270000002,1.7002191000001403,0.4719239999999445,0.7041309999999612,5.231831399999919,1.4480947000001834,0.400102699999934
84,20,0.0,2,False,0.0,None,right,False,2,1,0,enc,0,0,1,[],[],3,6,1 4 1 4 2 1,4,0.0,0.0,0.0,0.0,0.0,0.0,0,0.0,0.0,0.0,0.0,0.0
85,21,2.624045199999955,2,True,0.5,acc,right,False,2,1,6,ret,1,10,1,"['1', '4', '1', '4', '2', '1']","[136.13041829999997, 136.49042910000003, 137.0184987, 137.46648149999987, 138.39454490000003, 138.75446349999993]",3,6,# # # # # #,None,136.13041829999997,136.49042910000003,137.0184987,137.46648149999987,138.39454490000003,138.75446349999993,2.5237555999999586,0.3600108000000546,0.5280695999999807,0.44798279999986335,0.9280634000001555,0.35991859999990083
86,22,0.0,2,False,0.0,None,right,False,2,1,0,enc,0,0,1,[],[],3,6,1 3 2 1 1 3,4,0.0,0.0,0.0,0.0,0.0,0.0,0,0.0,0.0,0.0,0.0,0.0
87,23,3.2801470999997946,2,True,0.5,acc,right,False,2,1,6,ret,1,10,1,"['1', '3', '2', '1', '1', '3']","[149.19440600000007, 149.54649399999994, 150.69853609999996, 151.0504891999999, 152.14644410000005, 152.47455309999987]",3,6,# # # # # #,None,149.19440600000007,149.54649399999994,150.69853609999996,151.0504891999999,152.14644410000005,152.47455309999987,3.939942500000143,0.35208799999986695,1.152042100000017,0.35195309999994606,1.0959549000001516,0.328108999999813
88,0,0.0,2,False,0.0,None,right,False,2,1,0,enc,0,0,1,[],[],4,6,4 4 1 3 2 2,4,0.0,0.0,0.0,0.0,0.0,0.0,0,0.0,0.0,0.0,0.0,0.0
89,1,2.448009199999888,2,True,0.5,acc,right,False,2,1,6,ret,1,10,1,"['4', '4', '1', '3', '2', '2']","[7.471201900000096, 7.775317700000187, 8.823318299999983, 9.167264899999964, 9.695113600000013, 9.919211099999984]",4,6,# # # # # #,None,7.471201900000096,7.775317700000187,8.823318299999983,9.167264899999964,9.695113600000013,9.919211099999984,NaN,0.30411580000009053,1.0480005999997957,0.3439465999999811,0.5278487000000496,0.22409749999997075
90,2,0.0,2,False,0.0,None,right,False,2,1,0,enc,0,0,0,[],[],4,6,3 2 1 3 4 3,4,0.0,0.0,0.0,0.0,0.0,0.0,0,0.0,0.0,0.0,0.0,0.0
91,3,6.960411400000337,2,True,0.5,acc,right,True,2,1,3,ret,1,3,0,"['3', '4', '2', '1', '3', '4']","[19.183236799999804, 19.66334299999994, 22.463309699999854, 22.751340200000186, 25.807234499999822, 26.143648200000143]",4,6,# # # # # #,None,19.183236799999804,19.66334299999994,22.463309699999854,22.751340200000186,25.807234499999822,26.143648200000143,2.76402569999982,0.4801062000001366,2.7999666999999135,0.2880305000003318,3.055894299999636,0.3364137000003211
92,4,0.0,3,False,0.0,None,right,False,2,1,0,enc,0,0,0,[],[],4,6,2 3 2 3 1 2,6,0.0,0.0,0.0,0.0,0.0,0.0,0,0.0,0.0,0.0,0.0,0.0
93,5,5.967936000000008,3,True,0.5,acc,right,True,2,1,3,ret,1,3,0,"['2', '1', '3', '3', '2', '3']","[33.59933500000011, 34.223297799999955, 35.015116199999966, 38.911220000000185, 39.27928110000016, 39.56727100000012]",4,6,# # # # # #,None,33.59933500000011,34.223297799999955,35.015116199999966,38.911220000000185,39.27928110000016,39.56727100000012,0.9556867999999668,0.6239627999998447,0.791818400000011,3.896103800000219,0.36806109999997716,0.28798989999995683
94,6,0.0,3,False,0.0,None,right,False,2,1,0,enc,0,0,1,[],[],4,6,4 4 4 2 2 1,6,0.0,0.0,0.0,0.0,0.0,0.0,0,0.0,0.0,0.0,0.0,0.0
95,7,2.2560104999997748,3,True,0.5,acc,right,True,2,1,5,ret,1,5,1,"['4', '4', '3', '2', '2', '1']","[46.44728680000003, 46.71922019999988, 47.24721960000011, 48.04721080000013, 48.27931620000004, 48.703297299999804]",4,6,# # # # # #,None,46.44728680000003,46.71922019999988,47.24721960000011,48.04721080000013,48.27931620000004,48.703297299999804,0.3800157999999101,0.27193339999985255,0.5279994000002262,0.7999912000000222,0.23210539999990942,0.4239810999997644
96,8,0.0,2,False,0.0,None,right,False,2,1,0,enc,0,0,1,[],[],4,6,3 1 4 3 4 1,4,0.0,0.0,0.0,0.0,0.0,0.0,0,0.0,0.0,0.0,0.0,0.0
97,9,5.656076299999768,2,True,0.5,acc,right,True,2,1,5,ret,1,5,1,"['3', '1', '4', '3', '2', '1']","[58.24718050000024, 58.727219000000105, 62.28727550000008, 62.7351713999999, 63.599156300000004, 63.90325680000001]",4,6,# # # # # #,None,58.24718050000024,58.727219000000105,62.28727550000008,62.7351713999999,63.599156300000004,63.90325680000001,3.0438832000004368,0.48003849999986414,3.5600564999999733,0.44789589999982127,0.863984900000105,0.3041005000000041
98,10,0.0,3,False,0.0,None,right,False,2,1,0,enc,0,0,1,[],[],4,6,3 1 4 2 4 3,6,0.0,0.0,0.0,0.0,0.0,0.0,0,0.0,0.0,0.0,0.0,0.0
99,11,5.928015399999822,3,True,0.5,acc,right,True,2,1,3,ret,1,3,1,"['3', '4', '1', '2', '3', '3']","[72.24710990000017, 73.38303359999986, 73.91931950000003, 76.00712369999997, 76.44717719999994, 78.17512529999999]",4,6,# # # # # #,None,72.24710990000017,73.38303359999986,73.91931950000003,76.00712369999997,76.44717719999994,78.17512529999999,1.8438531000001603,1.1359236999996938,0.5362859000001663,2.087804199999937,0.44005349999997634,1.7279481000000487
100,12,0.0,2,False,0.0,None,right,False,2,1,0,enc,0,0,0,[],[],4,6,2 1 4 1 4 4,4,0.0,0.0,0.0,0.0,0.0,0.0,0,0.0,0.0,0.0,0.0,0.0
101,13,4.439963100000114,2,True,0.5,acc,right,True,2,1,5,ret,1,5,0,"['4', '4', '1', '4', '1', '3']","[86.87117860000012, 87.16713970000023, 87.87916250000012, 88.43916220000006, 90.91917399999988, 91.31114170000023]",4,6,# # # # # #,None,86.87117860000012,87.16713970000023,87.87916250000012,88.43916220000006,90.91917399999988,91.31114170000023,2.1960533000001305,0.2959611000001132,0.712022799999886,0.5599996999999348,2.4800117999998292,0.3919677000003503
102,14,0.0,3,False,0.0,None,right,False,2,1,0,enc,0,0,0,[],[],4,6,4 4 4 2 2 3,6,0.0,0.0,0.0,0.0,0.0,0.0,0,0.0,0.0,0.0,0.0,0.0
103,15,2.3600626000002194,3,True,0.5,acc,right,False,2,1,6,ret,1,10,0,"['3', '2', '2', '4', '4', '4']","[99.37510580000003, 99.91927869999995, 100.23118439999985, 101.17510860000016, 101.44711010000015, 101.73516840000025]",4,6,# # # # # #,None,99.37510580000003,99.91927869999995,100.23118439999985,101.17510860000016,101.44711010000015,101.73516840000025,1.5639640999997937,0.5441728999999214,0.3119056999998975,0.9439242000003105,0.2720014999999876,0.28805830000010246
104,16,0.0,2,False,0.0,None,right,False,2,1,0,enc,0,0,1,[],[],4,6,4 2 3 2 4 3,4,0.0,0.0,0.0,0.0,0.0,0.0,0,0.0,0.0,0.0,0.0,0.0
105,17,5.295965700000124,2,True,0.5,acc,right,True,2,1,2,ret,1,2,1,"['4', '3', '2', '3', '4', '1']","[111.4470945999999, 111.95972039999992, 113.83105790000013, 114.16717249999988, 116.44764529999998, 116.74306030000002]",4,6,# # # # # #,None,111.4470945999999,111.95972039999992,113.83105790000013,114.16717249999988,116.44764529999998,116.74306030000002,3.2119261999996525,0.5126258000000234,1.8713375000002088,0.33611459999974613,2.2804728000000978,0.29541500000004817
106,18,0.0,2,False,0.0,None,right,False,2,1,0,enc,0,0,0,[],[],4,6,4 4 2 3 3 4,4,0.0,0.0,0.0,0.0,0.0,0.0,0,0.0,0.0,0.0,0.0,0.0
107,19,5.2559948000002805,2,True,0.5,acc,right,True,2,1,3,ret,1,3,0,"['4', '3', '2', '3', '4', '3']","[125.65505099999996, 125.99113069999999, 127.23124359999997, 127.5111903999998, 130.2710681000001, 130.91104580000024]",4,6,# # # # # #,None,125.65505099999996,125.99113069999999,127.23124359999997,127.5111903999998,130.2710681000001,130.91104580000024,2.411990699999933,0.3360797000000275,1.2401128999999855,0.2799467999998342,2.7598777000002883,0.639977700000145
108,20,0.0,3,False,0.0,None,right,False,2,1,0,enc,0,0,1,[],[],4,6,3 3 3 1 1 2,6,0.0,0.0,0.0,0.0,0.0,0.0,0,0.0,0.0,0.0,0.0,0.0
109,21,2.031993899999634,3,True,0.5,acc,right,False,2,1,6,ret,1,10,1,"['3', '3', '3', '1', '1', '2']","[138.5269936000002, 138.79090689999998, 139.05506739999987, 140.00705859999994, 140.26311779999992, 140.55898749999983]",4,6,# # # # # #,None,138.5269936000002,138.79090689999998,139.05506739999987,140.00705859999994,140.26311779999992,140.55898749999983,1.115947799999958,0.2639132999997855,0.264160499999889,0.9519912000000659,0.2560591999999815,0.295869699999912
110,22,0.0,3,False,0.0,None,right,False,2,1,0,enc,0,0,0,[],[],4,6,1 4 3 2 2 1,6,0.0,0.0,0.0,0.0,0.0,0.0,0,0.0,0.0,0.0,0.0,0.0
111,23,3.2399646999997462,3,True,0.5,acc,right,True,2,1,5,ret,1,5,0,"['1', '2', '2', '3', '4', '4']","[147.71907160000023, 148.04705480000007, 148.30304730000012, 150.05503599999997, 150.5270155999999, 150.95903629999998]",4,6,# # # # # #,None,147.71907160000023,148.04705480000007,148.30304730000012,150.05503599999997,150.5270155999999,150.95903629999998,0.6600841000004039,0.32798319999983505,0.2559925000000476,1.7519886999998562,0.47197959999994055,0.4320207000000664
112,0,0.0,3,False,0.0,None,right,False,2,1,0,enc,0,0,1,[],[],5,6,4 3 1 1 1 1,6,0.0,0.0,0.0,0.0,0.0,0.0,0,0.0,0.0,0.0,0.0,0.0
113,1,1.9280702000000929,3,True,0.5,acc,right,False,2,1,6,ret,1,10,1,"['4', '3', '1', '1', '1', '1']","[5.9949963999997635, 6.394934899999953, 6.850854100000106, 7.338870699999916, 7.6109261000001425, 7.923066599999856]",5,6,# # # # # #,None,5.9949963999997635,6.394934899999953,6.850854100000106,7.338870699999916,7.6109261000001425,7.923066599999856,NaN,0.3999385000001894,0.45591920000015307,0.48801659999980984,0.27205540000022665,0.31214049999971394
114,2,0.0,3,False,0.0,None,right,False,2,1,0,enc,0,0,1,[],[],5,6,2 4 2 3 2 4,6,0.0,0.0,0.0,0.0,0.0,0.0,0,0.0,0.0,0.0,0.0,0.0
115,3,3.3921101000000817,3,True,0.5,acc,right,True,2,1,4,ret,1,4,1,"['2', '4', '2', '3', '4', '2']","[15.938875299999836, 16.588156499999968, 16.994884700000057, 17.93088549999993, 18.38687149999987, 19.330985399999918]",5,6,# # # # # #,None,15.938875299999836,16.588156499999968,16.994884700000057,17.93088549999993,18.38687149999987,19.330985399999918,1.5158086999999796,0.6492812000001322,0.4067282000000887,0.9360007999998743,0.45598599999993894,0.9441139000000476
116,4,0.0,2,False,0.0,None,right,False,2,1,0,enc,0,0,1,[],[],5,6,4 3 3 2 2 2,4,0.0,0.0,0.0,0.0,0.0,0.0,0,0.0,0.0,0.0,0.0,0.0
117,5,2.9840186000001268,2,True,0.5,acc,right,False,2,1,6,ret,1,10,1,"['4', '3', '3', '2', '2', '2']","[28.210873900000024, 28.57885380000016, 30.082947100000183, 30.458956099999796, 30.930961800000205, 31.19489250000015]",5,6,# # # # # #,None,28.210873900000024,28.57885380000016,30.082947100000183,30.458956099999796,30.930961800000205,31.19489250000015,2.3798885000001064,0.3679799000001367,1.5040933000000223,0.37600899999961257,0.472005700000409,0.26393069999994623
118,6,0.0,2,False,0.0,None,right,False,2,1,0,enc,0,0,1,[],[],5,6,2 3 1 3 2 3,4,0.0,0.0,0.0,0.0,0.0,0.0,0,0.0,0.0,0.0,0.0,0.0
119,7,2.1520454000001337,2,True,0.5,acc,right,False,2,1,6,ret,1,10,1,"['2', '3', '1', '3', '2', '3']","[39.75489999999991, 40.090997100000095, 40.73086770000009, 41.07487039999978, 41.61094610000009, 41.90694540000004]",5,6,# # # # # #,None,39.75489999999991,40.090997100000095,40.73086770000009,41.07487039999978,41.61094610000009,41.90694540000004,2.060007499999756,0.3360971000001882,0.6398705999999947,0.3440026999996917,0.5360757000003105,0.29599929999994856
120,8,0.0,2,False,0.0,None,right,False,2,1,0,enc,0,0,0,[],[],5,6,3 2 3 1 3 4,4,0.0,0.0,0.0,0.0,0.0,0.0,0,0.0,0.0,0.0,0.0,0.0
121,9,6.544147300000078,2,True,0.5,acc,right,True,2,1,2,ret,1,2,0,"['1', '3', '2', '3', '3', '2']","[51.77882679999993, 53.08291449999979, 55.01889200000005, 55.37879350000003, 58.00299820000009, 58.32297410000001]",5,6,# # # # # #,None,51.77882679999993,53.08291449999979,55.01889200000005,55.37879350000003,58.00299820000009,58.32297410000001,3.371881399999893,1.3040876999998545,1.9359775000002628,0.3599014999999781,2.624204700000064,0.3199758999999176
122,10,0.0,3,False,0.0,None,right,False,2,1,0,enc,0,0,0,[],[],5,6,1 3 1 4 1 1,6,0.0,0.0,0.0,0.0,0.0,0.0,0,0.0,0.0,0.0,0.0,0.0
123,11,7.223746399999982,3,True,0.5,acc,right,True,2,1,5,ret,1,5,0,"['1', '1', '4', '1', '3', '4']","[65.95503969999982, 66.21075659999997, 67.0348469999999, 72.09882169999992, 72.79481559999977, 73.1787860999998]",5,6,# # # # # #,None,65.95503969999982,66.21075659999997,67.0348469999999,72.09882169999992,72.79481559999977,73.1787860999998,1.1320655999998053,0.25571690000015224,0.8240903999999318,5.063974700000017,0.6959938999998485,0.3839705000000322
124,12,0.0,3,False,0.0,None,right,False,2,1,0,enc,0,0,0,[],[],5,6,3 3 4 4 1 1,6,0.0,0.0,0.0,0.0,0.0,0.0,0,0.0,0.0,0.0,0.0,0.0
125,13,5.3360012000002826,3,True,0.5,acc,right,False,2,1,6,ret,1,10,0,"['1', '1', '4', '4', '3', '3']","[80.6829072999999, 80.97879779999994, 81.4988171, 85.45881819999977, 85.7868153999998, 86.01890850000018]",5,6,# # # # # #,None,80.6829072999999,80.97879779999994,81.4988171,85.45881819999977,85.7868153999998,86.01890850000018,1.0041212000000996,0.29589050000004136,0.5200193000000581,3.960001099999772,0.3279972000000271,0.23209310000038386
126,14,0.0,2,False,0.0,None,right,False,2,1,0,enc,0,0,0,[],[],5,6,1 4 1 2 4 4,4,0.0,0.0,0.0,0.0,0.0,0.0,0,0.0,0.0,0.0,0.0,0.0
127,15,5.239933199999996,2,True,0.5,acc,right,True,2,1,4,ret,1,4,0,"['4', '4', '2', '4', '1', '1']","[95.49884070000007, 95.78672879999976, 98.86678040000015, 99.2348476000002, 100.45875720000004, 100.73877390000007]",5,6,# # # # # #,None,95.49884070000007,95.78672879999976,98.86678040000015,99.2348476000002,100.45875720000004,100.73877390000007,2.979932199999894,0.2878880999996909,3.080051600000388,0.36806720000004134,1.2239095999998426,0.28001670000003287
128,16,0.0,2,False,0.0,None,right,False,2,1,0,enc,0,0,1,[],[],5,6,1 2 2 1 4 2,4,0.0,0.0,0.0,0.0,0.0,0.0,0,0.0,0.0,0.0,0.0,0.0
129,17,2.9600931999998465,2,True,0.5,acc,right,False,2,1,6,ret,1,10,1,"['1', '2', '2', '1', '4', '2']","[110.53072320000001, 110.96287970000003, 111.71480489999976, 112.25868309999987, 112.93871050000007, 113.49081639999986]",5,6,# # # # # #,None,110.53072320000001,110.96287970000003,111.71480489999976,112.25868309999987,112.93871050000007,113.49081639999986,3.291949299999942,0.43215650000001915,0.7519251999997323,0.5438782000001083,0.6800274000001991,0.5521058999997877
130,18,0.0,3,False,0.0,None,right,False,2,1,0,enc,0,0,1,[],[],5,6,2 2 1 3 1 3,6,0.0,0.0,0.0,0.0,0.0,0.0,0,0.0,0.0,0.0,0.0,0.0
131,19,2.5359945999998668,3,True,0.5,acc,right,False,2,1,6,ret,1,10,1,"['2', '2', '1', '3', '1', '3']","[120.38673569999992, 120.7066877000002, 121.0827491, 122.08271349999995, 122.55478390000007, 122.92273029999978]",5,6,# # # # # #,None,120.38673569999992,120.7066877000002,121.0827491,122.08271349999995,122.55478390000007,122.92273029999978,0.3959193000000596,0.3199520000002849,0.3760613999997986,0.9999643999999535,0.47207040000012057,0.3679463999997097
132,20,0.0,2,False,0.0,None,right,False,2,1,0,enc,0,0,0,[],[],5,6,3 4 2 3 1 4,4,0.0,0.0,0.0,0.0,0.0,0.0,0,0.0,0.0,0.0,0.0,0.0
133,21,6.112080200000037,2,True,0.5,acc,right,False,2,1,6,ret,1,10,0,"['4', '1', '3', '2', '4', '3']","[132.69067510000013, 133.46669840000004, 135.77875559999984, 136.15496080000003, 138.51472030000014, 138.80275530000017]",5,6,# # # # # #,None,132.69067510000013,133.46669840000004,135.77875559999984,136.15496080000003,138.51472030000014,138.80275530000017,3.2679448000003504,0.7760232999999062,2.312057199999799,0.37620520000018587,2.3597595000001093,0.28803500000003623
134,22,0.0,3,False,0.0,None,right,False,2,1,0,enc,0,0,0,[],[],5,6,2 3 3 3 4 2,6,0.0,0.0,0.0,0.0,0.0,0.0,0,0.0,0.0,0.0,0.0,0.0
135,23,4.071943800000098,3,True,0.5,acc,right,False,2,1,6,ret,1,10,0,"['2', '4', '3', '3', '3', '2']","[146.73073939999995, 147.3306564999998, 148.16277290000016, 149.83470699999998, 150.11459239999976, 150.80268320000005]",5,6,# # # # # #,None,146.73073939999995,147.3306564999998,148.16277290000016,149.83470699999998,150.11459239999976,150.80268320000005,1.427984099999776,0.5999170999998569,0.8321164000003591,1.6719340999998167,0.27988539999978457,0.6880908000002819
136,0,0.0,2,False,0.0,None,right,False,2,1,0,enc,0,0,1,[],[],6,6,2 3 1 1 2 3,4,0.0,0.0,0.0,0.0,0.0,0.0,0,0.0,0.0,0.0,0.0,0.0
137,1,1.97604709999996,2,True,0.5,acc,right,False,2,1,6,ret,1,10,1,"['2', '3', '1', '1', '2', '3']","[7.210414799999853, 7.522457699999904, 8.114387500000248, 8.37092100000018, 8.92242380000016, 9.186461899999813]",6,6,# # # # # #,None,7.210414799999853,7.522457699999904,8.114387500000248,8.37092100000018,8.92242380000016,9.186461899999813,NaN,0.3120429000000513,0.5919298000003437,0.25653349999993225,0.5515027999999802,0.26403809999965233
138,2,0.0,3,False,0.0,None,right,False,2,1,0,enc,0,0,1,[],[],6,6,2 3 3 4 2 2,6,0.0,0.0,0.0,0.0,0.0,0.0,0,0.0,0.0,0.0,0.0,0.0
139,3,2.2640919000000395,3,True,0.5,acc,right,True,2,1,5,ret,1,5,1,"['2', '3', '3', '3', '2', '2']","[16.346352800000204, 16.618367099999887, 16.914453700000195, 17.58682200000021, 18.362379000000146, 18.610444700000244]",6,6,# # # # # #,None,16.346352800000204,16.618367099999887,16.914453700000195,17.58682200000021,18.362379000000146,18.610444700000244,0.6598909000003914,0.2720142999996824,0.29608660000030795,0.6723683000000165,0.7755569999999352,0.24806570000009742
140,4,0.0,2,False,0.0,None,right,False,2,1,0,enc,0,0,0,[],[],6,6,3 1 2 4 4 4,4,0.0,0.0,0.0,0.0,0.0,0.0,0,0.0,0.0,0.0,0.0,0.0
141,5,4.936252500000137,2,True,0.5,acc,right,True,2,1,3,ret,1,3,0,"['4', '4', '1', '2', '4', '4']","[27.482345500000065, 27.78650259999995, 29.53034549999984, 30.01028439999982, 32.138317200000074, 32.4185980000002]",6,6,# # # # # #,None,27.482345500000065,27.78650259999995,29.53034549999984,30.01028439999982,32.138317200000074,32.4185980000002,2.371900799999821,0.30415709999988394,1.7438428999998905,0.4799388999999792,2.1280328000002555,0.2802808000001278
142,6,0.0,3,False,0.0,None,right,False,2,1,0,enc,0,0,1,[],[],6,6,3 3 1 3 2 2,6,0.0,0.0,0.0,0.0,0.0,0.0,0,0.0,0.0,0.0,0.0,0.0
143,7,2.4159697000000047,3,True,0.5,acc,right,False,2,1,6,ret,1,10,1,"['3', '3', '1', '3', '2', '2']","[40.09032109999998, 40.37844230000019, 40.79435960000001, 41.71432159999995, 42.074373599999944, 42.50629079999999]",6,6,# # # # # #,None,40.09032109999998,40.37844230000019,40.79435960000001,41.71432159999995,42.074373599999944,42.50629079999999,1.171723099999781,0.28812120000020514,0.4159172999998191,0.9199619999999413,0.36005199999999604,0.4319172000000435
144,8,0.0,2,False,0.0,None,right,False,2,1,0,enc,0,0,1,[],[],6,6,1 2 2 2 4 1,4,0.0,0.0,0.0,0.0,0.0,0.0,0,0.0,0.0,0.0,0.0,0.0
145,9,3.4319616000002497,2,True,0.5,acc,right,False,2,1,6,ret,1,10,1,"['1', '2', '2', '2', '4', '1']","[51.354401099999905, 51.74631360000012, 52.56237539999984, 52.83434560000023, 53.80229730000019, 54.786362700000154]",6,6,# # # # # #,None,51.354401099999905,51.74631360000012,52.56237539999984,52.83434560000023,53.80229730000019,54.786362700000154,2.3481102999999166,0.3919125000002168,0.8160617999997157,0.2719702000003963,0.9679516999999578,0.9840653999999631
146,10,0.0,3,False,0.0,None,right,False,2,1,0,enc,0,0,1,[],[],6,6,3 1 4 4 2 4,6,0.0,0.0,0.0,0.0,0.0,0.0,0,0.0,0.0,0.0,0.0,0.0
147,11,3.272094399999787,3,True,0.5,acc,right,True,2,1,5,ret,1,5,1,"['3', '1', '4', '4', '1', '4']","[62.10626390000016, 62.43433499999992, 63.64231520000021, 64.58633770000006, 65.0822618000002, 65.37835829999995]",6,6,# # # # # #,None,62.10626390000016,62.43433499999992,63.64231520000021,64.58633770000006,65.0822618000002,65.37835829999995,0.8199012000000039,0.3280710999997609,1.2079802000002928,0.9440224999998463,0.4959241000001384,0.29609649999974863
148,12,0.0,3,False,0.0,None,right,False,2,1,0,enc,0,0,0,[],[],6,6,3 4 1 3 4 2,6,0.0,0.0,0.0,0.0,0.0,0.0,0,0.0,0.0,0.0,0.0,0.0
149,13,4.6159434000001065,3,True,0.5,acc,right,False,2,1,6,ret,1,10,0,"['2', '4', '3', '1', '4', '3']","[73.17031980000002, 73.59432259999994, 74.29037890000018, 75.69837989999996, 76.59426429999985, 77.78626320000012]",6,6,# # # # # #,None,73.17031980000002,73.59432259999994,74.29037890000018,75.69837989999996,76.59426429999985,77.78626320000012,1.2919615000000704,0.42400279999992563,0.6960563000002367,1.4080009999997856,0.8958843999998862,1.1919989000002715
150,14,0.0,3,False,0.0,None,right,False,2,1,0,enc,0,0,0,[],[],6,6,1 2 1 3 1 1,6,0.0,0.0,0.0,0.0,0.0,0.0,0,0.0,0.0,0.0,0.0,0.0
151,15,5.687904899999921,3,True,0.5,acc,right,True,2,1,4,ret,1,4,0,"['1', '1', '3', '1', '3', '2']","[84.85021929999994, 85.06633460000012, 85.60267879999992, 88.88219340000023, 89.63419569999996, 90.53812419999986]",6,6,# # # # # #,None,84.85021929999994,85.06633460000012,85.60267879999992,88.88219340000023,89.63419569999996,90.53812419999986,0.5639560999998139,0.2161153000001832,0.5363441999998031,3.2795146000003115,0.7520022999997309,0.9039284999998927
152,16,0.0,2,False,0.0,None,right,False,2,1,0,enc,0,0,1,[],[],6,6,2 1 4 3 3 2,4,0.0,0.0,0.0,0.0,0.0,0.0,0,0.0,0.0,0.0,0.0,0.0
153,17,5.079964300000029,2,True,0.5,acc,right,True,2,1,4,ret,1,4,1,"['2', '1', '4', '3', '2', '1']","[100.06621949999999, 100.31420900000012, 101.4743797000001, 101.85028890000012, 104.13817879999988, 105.14618380000002]",6,6,# # # # # #,None,100.06621949999999,100.31420900000012,101.4743797000001,101.85028890000012,104.13817879999988,105.14618380000002,3.028095300000132,0.24798950000013065,1.1601706999999806,0.3759092000000237,2.2878898999997546,1.0080050000001393
154,18,0.0,2,False,0.0,None,right,False,2,1,0,enc,0,0,0,[],[],6,6,1 4 4 1 2 3,4,0.0,0.0,0.0,0.0,0.0,0.0,0,0.0,0.0,0.0,0.0,0.0
155,19,4.647931399999834,2,True,0.5,acc,right,True,2,1,4,ret,1,4,0,"['3', '4', '1', '2', '4', '1']","[114.45819470000015, 114.85027189999983, 116.12218040000016, 116.55404829999998, 118.58618460000025, 119.10612609999998]",6,6,# # # # # #,None,114.45819470000015,114.85027189999983,116.12218040000016,116.55404829999998,118.58618460000025,119.10612609999998,2.812010900000132,0.39207719999967594,1.271908500000336,0.43186789999981556,2.032136300000275,0.5199414999997316
156,20,0.0,2,False,0.0,None,right,False,2,1,0,enc,0,0,0,[],[],6,6,2 1 2 3 4 4,4,0.0,0.0,0.0,0.0,0.0,0.0,0,0.0,0.0,0.0,0.0,0.0
157,21,3.3519587999999203,2,True,0.5,acc,right,False,2,1,6,ret,1,10,0,"['4', '4', '3', '2', '1', '2']","[128.03415380000024, 128.29020390000005, 129.44212830000015, 129.7543128000002, 131.14715909999995, 131.38611260000016]",6,6,# # # # # #,None,128.03415380000024,128.29020390000005,129.44212830000015,129.7543128000002,131.14715909999995,131.38611260000016,2.428027700000257,0.2560500999998112,1.151924400000098,0.3121845000000576,1.3928462999997464,0.238953500000207
158,22,0.0,3,False,0.0,None,right,False,2,1,0,enc,0,0,0,[],[],6,6,3 1 3 4 2 3,6,0.0,0.0,0.0,0.0,0.0,0.0,0,0.0,0.0,0.0,0.0,0.0
159,23,9.392029399999958,3,True,0.5,acc,right,True,2,1,1,ret,1,1,0,"['3', '1', '3', '4', '2', '1']","[138.50611449999997, 139.52212400000008, 140.08215729999984, 147.03414030000022, 147.61820690000013, 147.89814389999992]",6,6,# # # # # #,None,138.50611449999997,139.52212400000008,140.08215729999984,147.03414030000022,147.61820690000013,147.89814389999992,0.6200018999998065,1.0160095000001093,0.560033299999759,6.951983000000382,0.5840665999999146,0.2799369999997907
160,0,0.0,2,False,0.0,None,right,False,2,1,0,enc,0,0,1,[],[],7,6,2 4 4 2 1 3,4,0.0,0.0,0.0,0.0,0.0,0.0,0,0.0,0.0,0.0,0.0,0.0
161,1,2.879865900000369,2,True,0.5,acc,right,False,2,1,6,ret,1,10,1,"['2', '4', '4', '2', '1', '3']","[7.755160899999737, 8.042967699999735, 9.130923400000029, 9.707508399999824, 10.250856999999996, 10.635026800000105]",7,6,# # # # # #,None,7.755160899999737,8.042967699999735,9.130923400000029,9.707508399999824,10.250856999999996,10.635026800000105,NaN,0.2878067999999985,1.0879557000002933,0.5765849999997954,0.5433486000001722,0.3841698000001088
162,2,0.0,3,False,0.0,None,right,False,2,1,0,enc,0,0,1,[],[],7,6,2 4 3 1 4 4,6,0.0,0.0,0.0,0.0,0.0,0.0,0,0.0,0.0,0.0,0.0,0.0
163,3,2.7920073000000234,3,True,0.5,acc,right,False,2,1,6,ret,1,10,1,"['2', '4', '3', '1', '4', '4']","[17.531041299999742, 18.075039899999865, 18.81103630000007, 19.626970999999685, 20.00301330000002, 20.323048599999765]",7,6,# # # # # #,None,17.531041299999742,18.075039899999865,18.81103630000007,19.626970999999685,20.00301330000002,20.323048599999765,0.39601449999963734,0.5439986000001227,0.7359964000002037,0.815934699999616,0.37604230000033567,0.3200352999997449
164,4,0.0,3,False,0.0,None,right,False,2,1,0,enc,0,0,1,[],[],7,6,3 3 4 4 4 1,6,0.0,0.0,0.0,0.0,0.0,0.0,0,0.0,0.0,0.0,0.0,0.0
165,5,2.6159316000002946,3,True,0.5,acc,right,True,2,1,4,ret,1,4,1,"['3', '3', '4', '3', '3', '1']","[27.602903399999832, 27.802892899999733, 28.186863399999766, 28.715166299999964, 28.95506660000001, 30.218835000000126]",7,6,# # # # # #,None,27.602903399999832,27.802892899999733,28.186863399999766,28.715166299999964,28.95506660000001,30.218835000000126,0.7798548000000665,0.19998949999990145,0.3839705000000322,0.5283029000001989,0.2399003000000448,1.2637684000001173
166,6,0.0,2,False,0.0,None,right,False,2,1,0,enc,0,0,1,[],[],7,6,4 1 2 3 3 2,4,0.0,0.0,0.0,0.0,0.0,0.0,0,0.0,0.0,0.0,0.0,0.0
167,7,2.463810100000046,2,True,0.5,acc,right,False,2,1,6,ret,1,10,1,"['4', '1', '2', '3', '3', '2']","[39.15513340000007, 39.60299979999991, 40.39497570000003, 40.78689140000006, 41.322954599999775, 41.618943500000114]",7,6,# # # # # #,None,39.15513340000007,39.60299979999991,40.39497570000003,40.78689140000006,41.322954599999775,41.618943500000114,2.4362983999999415,0.4478663999998389,0.791975900000125,0.39191570000002685,0.5360631999997167,0.2959889000003386
168,8,0.0,3,False,0.0,None,right,False,2,1,0,enc,0,0,0,[],[],7,6,3 4 2 1 2 2,6,0.0,0.0,0.0,0.0,0.0,0.0,0,0.0,0.0,0.0,0.0,0.0
169,9,3.952168100000108,3,True,0.5,acc,right,False,2,1,6,ret,1,10,0,"['2', '2', '1', '2', '4', '3']","[48.93097929999976, 49.138972100000046, 49.57886109999981, 51.31492669999989, 52.47489050000013, 52.88314739999987]",7,6,# # # # # #,None,48.93097929999976,49.138972100000046,49.57886109999981,51.31492669999989,52.47489050000013,52.88314739999987,0.8120357999996486,0.20799280000028375,0.4398889999997664,1.7360656000000745,1.1599638000002415,0.408256899999742
170,10,0.0,2,False,0.0,None,right,False,2,1,0,enc,0,0,0,[],[],7,6,4 4 3 4 3 3,4,0.0,0.0,0.0,0.0,0.0,0.0,0,0.0,0.0,0.0,0.0,0.0
171,11,7.183885299999928,2,True,0.5,acc,right,True,2,1,4,ret,1,4,0,"['2', '2', '4', '3', '4', '4']","[62.67496429999983, 62.8509626, 67.73890249999977, 67.97885330000008, 69.61887079999997, 69.85884959999976]",7,6,# # # # # #,None,62.67496429999983,62.8509626,67.73890249999977,67.97885330000008,69.61887079999997,69.85884959999976,3.291816899999958,0.1759983000001739,4.887939899999765,0.2399508000003152,1.6400174999998853,0.23997879999978977
172,12,0.0,2,False,0.0,None,right,False,2,1,0,enc,0,0,0,[],[],7,6,4 1 4 1 4 2,4,0.0,0.0,0.0,0.0,0.0,0.0,0,0.0,0.0,0.0,0.0,0.0
173,13,3.2479773000000023,2,True,0.5,acc,right,False,2,1,6,ret,1,10,0,"['2', '4', '1', '4', '1', '4']","[80.72289959999989, 81.04292880000003, 82.77080780000006, 83.06689809999989, 83.62676959999999, 83.9708768999999]",7,6,# # # # # #,None,80.72289959999989,81.04292880000003,82.77080780000006,83.06689809999989,83.62676959999999,83.9708768999999,4.364050000000134,0.32002920000013546,1.72787900000003,0.2960902999998325,0.5598715000000993,0.3441072999999051
174,14,0.0,3,False,0.0,None,right,False,2,1,0,enc,0,0,1,[],[],7,6,2 1 4 3 1 2,6,0.0,0.0,0.0,0.0,0.0,0.0,0,0.0,0.0,0.0,0.0,0.0
175,15,3.2560747000002266,3,True,0.5,acc,right,False,2,1,6,ret,1,10,1,"['2', '1', '4', '3', '1', '2']","[91.45079069999974, 91.82687570000007, 92.25087129999974, 93.69882139999982, 94.12283579999985, 94.70686539999997]",7,6,# # # # # #,None,91.45079069999974,91.82687570000007,92.25087129999974,93.69882139999982,94.12283579999985,94.70686539999997,0.9799137999998493,0.3760850000003302,0.42399559999967096,1.447950100000071,0.42401440000003277,0.5840296000001217
176,16,0.0,2,False,0.0,None,right,False,2,1,0,enc,0,0,0,[],[],7,6,4 4 4 2 4 2,4,0.0,0.0,0.0,0.0,0.0,0.0,0,0.0,0.0,0.0,0.0,0.0
177,17,3.7839834999999766,2,True,0.5,acc,right,True,2,1,5,ret,1,5,0,"['2', '4', '4', '4', '4', '4']","[103.69082019999996, 105.8347660999998, 106.13880969999991, 106.73886110000012, 107.09875920000013, 107.47480369999994]",7,6,# # # # # #,None,103.69082019999996,105.8347660999998,106.13880969999991,106.73886110000012,107.09875920000013,107.47480369999994,2.4839547999999922,2.143945899999835,0.30404360000011366,0.6000514000002113,0.35989810000000944,0.37604449999980716
178,18,0.0,3,False,0.0,None,right,False,2,1,0,enc,0,0,0,[],[],7,6,3 1 4 4 2 4,6,0.0,0.0,0.0,0.0,0.0,0.0,0,0.0,0.0,0.0,0.0,0.0
179,19,4.640051500000028,3,True,0.5,acc,right,True,2,1,3,ret,1,3,0,"['4', '2', '4', '3', '3', '4']","[115.55472689999988, 116.46684670000013, 117.06673599999976, 119.40268609999976, 119.69066609999982, 120.1947783999999]",7,6,# # # # # #,None,115.55472689999988,116.46684670000013,117.06673599999976,119.40268609999976,119.69066609999982,120.1947783999999,1.5799231999999392,0.912119800000255,0.5998892999996315,2.335950099999991,0.2879800000000614,0.504112300000088
180,20,0.0,3,False,0.0,None,right,False,2,1,0,enc,0,0,0,[],[],7,6,1 4 2 2 3 4,6,0.0,0.0,0.0,0.0,0.0,0.0,0,0.0,0.0,0.0,0.0,0.0
181,21,6.335638000000018,3,True,0.5,acc,right,True,2,1,4,ret,1,4,0,"['4', '3', '2', '4', '3', '1']","[128.10714729999972, 130.09875349999993, 130.43476929999997, 133.8267482000001, 134.10679429999982, 134.44278529999974]",7,6,# # # # # #,None,128.10714729999972,130.09875349999993,130.43476929999997,133.8267482000001,134.10679429999982,134.44278529999974,1.4123688999998194,1.9916062000002057,0.33601580000004105,3.39197890000014,0.28004609999970853,0.33599099999992177
182,22,0.0,2,False,0.0,None,right,False,2,1,0,enc,0,0,1,[],[],7,6,1 1 2 1 1 3,4,0.0,0.0,0.0,0.0,0.0,0.0,0,0.0,0.0,0.0,0.0,0.0
183,23,2.8003416999999904,2,True,0.5,acc,right,False,2,1,6,ret,1,10,1,"['1', '1', '2', '1', '1', '3']","[143.314707, 143.53082949999998, 144.2347394999997, 144.58676089999972, 145.5628168999997, 146.1150487]",7,6,# # # # # #,None,143.314707,143.53082949999998,144.2347394999997,144.58676089999972,145.5628168999997,146.1150487,2.3719217000002573,0.21612249999998312,0.7039099999997234,0.35202140000001236,0.9760559999999714,0.5522318000002997
184,0,0.0,2,False,0.0,None,right,False,2,1,0,enc,0,0,1,[],[],8,6,4 2 3 2 2 2,4,0.0,0.0,0.0,0.0,0.0,0.0,0,0.0,0.0,0.0,0.0,0.0
185,1,2.9440675999999257,2,True,0.5,acc,right,True,2,1,5,ret,1,5,1,"['4', '2', '3', '4', '2', '2']","[7.588029800000186, 7.916060400000333, 8.89206110000032, 9.332118100000116, 10.276184000000285, 10.532097400000112]",8,6,# # # # # #,None,7.588029800000186,7.916060400000333,8.89206110000032,9.332118100000116,10.276184000000285,10.532097400000112,NaN,0.3280306000001474,0.976000699999986,0.44005699999979697,0.9440659000001688,0.25591339999982665
186,2,0.0,2,False,0.0,None,right,False,2,1,0,enc,0,0,1,[],[],8,6,1 1 1 3 1 4,4,0.0,0.0,0.0,0.0,0.0,0.0,0,0.0,0.0,0.0,0.0,0.0
187,3,2.6560300000001007,2,True,0.5,acc,right,False,2,1,6,ret,1,10,1,"['1', '1', '1', '3', '1', '4']","[19.372181400000045, 19.58017340000015, 21.036106400000335, 21.36419539999997, 21.708192600000075, 22.028211400000146]",8,6,# # # # # #,None,19.372181400000045,19.58017340000015,21.036106400000335,21.36419539999997,21.708192600000075,22.028211400000146,2.3400839999999334,0.20799200000010387,1.4559330000001864,0.32808899999963614,0.3439972000001035,0.32001880000007077
188,4,0.0,2,False,0.0,None,right,False,2,1,0,enc,0,0,0,[],[],8,6,2 1 2 1 3 4,4,0.0,0.0,0.0,0.0,0.0,0.0,0,0.0,0.0,0.0,0.0,0.0
189,5,2.8240053999998054,2,True,0.5,acc,right,False,2,1,6,ret,1,10,0,"['4', '3', '1', '2', '1', '2']","[30.076145400000314, 30.340133400000013, 31.99608380000018, 32.27608760000021, 32.57218140000032, 32.90015080000012]",8,6,# # # # # #,None,30.076145400000314,30.340133400000013,31.99608380000018,32.27608760000021,32.57218140000032,32.90015080000012,1.5479340000001685,0.26398799999969924,1.6559504000001652,0.28000380000003133,0.2960938000001079,0.3279693999998017
190,6,0.0,2,False,0.0,None,right,False,2,1,0,enc,0,0,1,[],[],8,6,1 3 1 4 2 3,4,0.0,0.0,0.0,0.0,0.0,0.0,0,0.0,0.0,0.0,0.0,0.0
191,7,2.240051599999788,2,True,0.5,acc,right,False,2,1,6,ret,1,10,1,"['1', '3', '1', '4', '2', '3']","[42.716063900000336, 43.188028999999915, 43.6760505000002, 44.04415450000033, 44.62813520000009, 44.956115500000124]",8,6,# # # # # #,None,42.716063900000336,43.188028999999915,43.6760505000002,44.04415450000033,44.62813520000009,44.956115500000124,3.315913100000216,0.47196509999957925,0.4880215000002863,0.3681040000001303,0.5839806999997563,0.32798030000003564
192,8,0.0,3,False,0.0,None,right,False,2,1,0,enc,0,0,1,[],[],8,6,1 4 3 3 2 2,6,0.0,0.0,0.0,0.0,0.0,0.0,0,0.0,0.0,0.0,0.0,0.0
193,9,2.680075699999634,3,True,0.5,acc,right,False,2,1,6,ret,1,10,1,"['1', '4', '3', '3', '2', '2']","[51.411985500000355, 51.980231600000025, 52.62005780000027, 53.57212180000033, 53.87602560000005, 54.09206119999999]",8,6,# # # # # #,None,51.411985500000355,51.980231600000025,52.62005780000027,53.57212180000033,53.87602560000005,54.09206119999999,-0.04412999999976819,0.5682460999996692,0.6398262000002433,0.952064000000064,0.3039037999997163,0.21603559999994104
194,10,0.0,2,False,0.0,None,right,False,2,1,0,enc,0,0,0,[],[],8,6,4 3 3 4 4 1,4,0.0,0.0,0.0,0.0,0.0,0.0,0,0.0,0.0,0.0,0.0,0.0
195,11,4.055988999999954,2,True,0.5,acc,right,True,2,1,2,ret,1,2,0,"['1', '4', '3', '4', '4', '3']","[62.90812770000002, 63.22803270000031, 64.99587880000036, 65.37201510000023, 66.64401769999995, 66.96411669999998]",8,6,# # # # # #,None,62.90812770000002,63.22803270000031,64.99587880000036,65.37201510000023,66.64401769999995,66.96411669999998,2.3160665000000336,0.3199050000002899,1.7678461000000425,0.37613629999987097,1.2720025999997233,0.32009900000002744
196,12,0.0,2,False,0.0,None,right,False,2,1,0,enc,0,0,0,[],[],8,6,3 1 3 2 4 2,4,0.0,0.0,0.0,0.0,0.0,0.0,0,0.0,0.0,0.0,0.0,0.0
197,13,7.367226200000005,2,True,0.5,acc,right,True,2,1,2,ret,1,2,0,"['2', '4', '3', '4', '2', '1']","[76.04474640000035, 76.35605830000031, 79.15599020000036, 79.74810000000025, 83.16387490000034, 83.41197260000035]",8,6,# # # # # #,None,76.04474640000035,76.35605830000031,79.15599020000036,79.74810000000025,83.16387490000034,83.41197260000035,2.5806297000003724,0.3113118999999642,2.799931900000047,0.5921097999998892,3.4157749000000877,0.24809770000001663
198,14,0.0,3,False,0.0,None,right,False,2,1,0,enc,0,0,1,[],[],8,6,1 3 2 3 3 3,6,0.0,0.0,0.0,0.0,0.0,0.0,0,0.0,0.0,0.0,0.0,0.0
199,15,1.8799106999999824,3,True,0.5,acc,right,False,2,1,6,ret,1,10,1,"['1', '3', '2', '3', '3', '3']","[90.34007620000011, 90.66000220000024, 91.07599440000013, 91.652063, 91.97211510000034, 92.2199869000001]",8,6,# # # # # #,None,90.34007620000011,90.66000220000024,91.07599440000013,91.652063,91.97211510000034,92.2199869000001,0.42810359999975844,0.31992600000012317,0.41599219999989145,0.5760685999998714,0.3200521000003391,0.24787179999975706
200,16,0.0,3,False,0.0,None,right,False,2,1,0,enc,0,0,1,[],[],8,6,4 2 4 4 2 4,6,0.0,0.0,0.0,0.0,0.0,0.0,0,0.0,0.0,0.0,0.0,0.0
201,17,2.4479679000000942,3,True,0.5,acc,right,True,2,1,3,ret,1,3,1,"['4', '2', '4', '2', '4', '2']","[99.32398360000025, 99.82800769999994, 100.21195880000005, 100.68389479999996, 101.04405260000021, 101.77195150000034]",8,6,# # # # # #,None,99.32398360000025,99.82800769999994,100.21195880000005,100.68389479999996,101.04405260000021,101.77195150000034,0.6039967000001525,0.5040240999996968,0.3839511000001039,0.4719359999999142,0.3601578000002519,0.7278989000001275
202,18,0.0,3,False,0.0,None,right,False,2,1,0,enc,0,0,0,[],[],8,6,1 2 2 3 1 1,6,0.0,0.0,0.0,0.0,0.0,0.0,0,0.0,0.0,0.0,0.0,0.0
203,19,7.663878199999999,3,True,0.5,acc,right,False,2,1,6,ret,1,10,0,"['1', '1', '3', '2', '2', '1']","[108.89202890000024, 109.11596150000014, 110.13208410000016, 114.43596300000036, 114.67592259999992, 116.55590710000024]",8,6,# # # # # #,None,108.89202890000024,109.11596150000014,110.13208410000016,114.43596300000036,114.67592259999992,116.55590710000024,0.6200773999999001,0.22393259999989823,1.016122600000017,4.3038789000002,0.2399595999995654,1.8799845000003188
204,20,0.0,3,False,0.0,None,right,False,2,1,0,enc,0,0,0,[],[],8,6,2 3 1 1 3 4,6,0.0,0.0,0.0,0.0,0.0,0.0,0,0.0,0.0,0.0,0.0,0.0
205,21,6.183703300000161,3,True,0.5,acc,right,True,2,1,4,ret,1,4,0,"['4', '3', '1', '2', '3', '1']","[124.36430199999995, 124.75597000000016, 127.08389940000006, 130.00399940000034, 130.25997720000032, 130.5480053000001]",8,6,# # # # # #,None,124.36430199999995,124.75597000000016,127.08389940000006,130.00399940000034,130.25997720000032,130.5480053000001,1.308394899999712,0.39166800000020885,2.3279293999999027,2.920100000000275,0.2559777999999824,0.2880280999997922
206,22,0.0,3,False,0.0,None,right,False,2,1,0,enc,0,0,0,[],[],8,6,4 3 2 2 1 3,6,0.0,0.0,0.0,0.0,0.0,0.0,0,0.0,0.0,0.0,0.0,0.0
207,23,5.383990799999992,3,True,0.5,acc,right,False,2,1,6,ret,1,10,0,"['3', '1', '2', '2', '3', '4']","[138.44389309999997, 139.38790960000006, 139.69987040000024, 142.67590770000015, 143.40389240000013, 143.82788389999996]",8,6,# # # # # #,None,138.44389309999997,139.38790960000006,139.69987040000024,142.67590770000015,143.40389240000013,143.82788389999996,1.395887799999855,0.9440165000000889,0.311960800000179,2.9760372999999163,0.7279846999999791,0.4239914999998291
