,MT,Unnamed: 0,Unnamed: 0.1,Unnamed: 0.1.1,Unnamed: 0.1.1.1,Unnamed: 0.1.1.1.1,Unnamed: 0.1.1.1.1.1,Unnamed: 0.1.1.1.1.1.1,Unnamed: 0.1.1.1.1.1.1.1,Unnamed: 0.1.1.1.1.1.1.1.1,chunk,display_trial_feedback,feedback_dur,feedback_type,hand,is_error,item_dur,iti_dur,number_correct,phase,phase_type,points,recall_dir,response,response_time,run_number,seq_length,seq_str,trial_dur
0,0.0,0,0.0,0.0,0.0,0.0,0.0,0.0,0.0,0.0,3,False,0.0,None,right,False,2,1,0,enc,0,0,1,[],[],1,6,2 2 2 4 4 3,6
1,8.632152499999961,1,1.0,1.0,1.0,1.0,1.0,1.0,1.0,1.0,3,True,0.5,acc,right,True,2,1,2,ret,1,2,1,"['1', '1', '1', '4', '2', '3']","[6.085691900000029, 6.301848599999971, 9.389796899999965, 13.637802800000031, 14.317887599999949, 14.71784439999999]",1,6,# # # # # #,None
2,0.0,2,2.0,2.0,2.0,2.0,2.0,2.0,2.0,2.0,3,False,0.0,None,right,False,2,1,0,enc,0,0,1,[],[],1,6,1 3 1 3 1 2,6
3,3.463833099999988,3,3.0,3.0,3.0,3.0,3.0,3.0,3.0,3.0,3,True,0.5,acc,right,True,2,1,0,ret,1,0,1,"['2', '2', '2', '4', '2', '3']","[30.013887100000034, 30.293813999999998, 30.693801099999973, 32.12645539999994, 33.093805299999985, 33.47772020000002]",1,6,# # # # # #,None
4,0.0,4,4.0,4.0,4.0,4.0,4.0,4.0,4.0,4.0,3,False,0.0,None,right,False,2,1,0,enc,0,0,0,[],[],1,6,4 1 4 3 4 3,6
5,6.526445100000046,5,5.0,5.0,5.0,5.0,5.0,5.0,5.0,5.0,3,True,0.5,acc,right,False,2,1,6,ret,1,10,0,"['3', '4', '3', '4', '1', '4']","[42.231404, 42.75779799999998, 43.23780629999999, 47.413661400000024, 48.12578540000004, 48.757849100000044]",1,6,# # # # # #,None
6,0.0,6,6.0,6.0,6.0,6.0,6.0,6.0,6.0,6.0,2,False,0.0,None,right,False,2,1,0,enc,0,0,1,[],[],1,6,4 3 4 1 4 4,4
7,2.8879278000000568,7,7.0,7.0,7.0,7.0,7.0,7.0,7.0,7.0,2,True,0.5,acc,right,False,2,1,6,ret,1,10,1,"['4', '3', '4', '1', '4', '4']","[58.24574759999996, 58.73362610000004, 59.42168509999999, 59.877674400000046, 60.8456195, 61.133675400000016]",1,6,# # # # # #,None
8,0.0,8,8.0,8.0,8.0,8.0,8.0,8.0,8.0,8.0,2,False,0.0,None,right,False,2,1,0,enc,0,0,0,[],[],1,6,4 1 3 3 1 4,4
9,16.551816099999996,9,9.0,9.0,9.0,9.0,9.0,9.0,9.0,9.0,2,True,0.5,acc,right,True,2,1,3,ret,1,3,0,"['4', '4', '3', '2', '1', '1']","[70.8056626, 71.11770669999999, 86.12577150000004, 86.62962489999995, 86.92579860000001, 87.3574787]",1,6,# # # # # #,None
10,0.0,10,10.0,10.0,10.0,10.0,10.0,10.0,10.0,10.0,2,False,0.0,None,right,False,2,1,0,enc,0,0,0,[],[],1,6,1 3 4 2 2 2,4
11,6.679897099999947,11,11.0,11.0,11.0,11.0,11.0,11.0,11.0,11.0,2,True,0.5,acc,right,False,2,1,6,ret,1,10,0,"['2', '2', '2', '4', '3', '1']","[97.17371600000001, 97.44567010000003, 99.25359860000003, 99.76558499999999, 103.46165310000004, 103.85361309999996]",1,6,# # # # # #,None
12,0.0,12,12.0,12.0,12.0,12.0,12.0,12.0,12.0,12.0,3,False,0.0,None,right,False,2,1,0,enc,0,0,0,[],[],1,6,4 1 1 1 4 3,6
13,3.9119629999999006,13,13.0,13.0,13.0,13.0,13.0,13.0,13.0,13.0,3,True,0.5,acc,right,False,2,1,6,ret,1,10,0,"['3', '4', '1', '1', '1', '4']","[111.93359380000004, 112.6055457, 113.48565069999995, 114.53371179999999, 114.98161049999999, 115.84555679999994]",1,6,# # # # # #,None
14,0.0,14,14.0,14.0,14.0,14.0,14.0,14.0,14.0,14.0,2,False,0.0,None,right,False,2,1,0,enc,0,0,1,[],[],1,6,1 2 3 4 3 1,4
15,3.9919552999999715,15,15.0,15.0,15.0,15.0,15.0,15.0,15.0,15.0,2,True,0.5,acc,right,True,2,1,3,ret,1,3,1,"['1', '2', '3', '2', '4', '3']","[125.6136027, 125.98194409999996, 127.14961879999998, 127.58158960000003, 129.17365570000004, 129.60555799999997]",1,6,# # # # # #,None
16,0.0,16,16.0,16.0,16.0,16.0,16.0,0.0,0.0,,3,False,0.0,None,right,False,2,1,0,enc,0,0,1,[],[],1,6,4 2 2 1 1 2,6
17,2.4158815000000686,17,17.0,17.0,17.0,17.0,17.0,1.0,1.0,,3,True,0.5,acc,right,True,2,1,5,ret,1,5,1,"['4', '2', '2', '1', '2', '2']","[7.902332099999967, 8.822362999999996, 9.054279999999949, 9.766396900000018, 10.078328800000008, 10.318213600000036]",1,6,# # # # # #,None
18,0.0,18,18.0,18.0,18.0,18.0,18.0,2.0,2.0,,3,False,0.0,None,right,False,2,1,0,enc,0,0,1,[],[],1,6,3 3 2 2 3 3,6
19,2.791909799999985,19,19.0,19.0,19.0,19.0,19.0,3.0,3.0,,3,True,0.5,acc,right,False,2,1,6,ret,1,10,1,"['3', '3', '2', '2', '3', '3']","[18.302336800000035, 18.574423000000024, 19.238218699999948, 20.406190899999956, 20.886259699999982, 21.09424660000002]",1,6,# # # # # #,None
20,0.0,20,20.0,20.0,20.0,20.0,20.0,4.0,4.0,,2,False,0.0,None,right,False,2,1,0,enc,0,0,0,[],[],1,6,1 4 4 2 2 1,4
21,8.319881399999987,21,21.0,21.0,21.0,21.0,21.0,5.0,5.0,,2,True,0.5,acc,right,True,2,1,5,ret,1,5,0,"['1', '2', '2', '2', '4', '1']","[31.44620150000003, 31.79834960000005, 36.062329100000056, 36.4862521, 39.47027179999998, 39.766082900000015]",1,6,# # # # # #,None
22,0.0,22,22.0,22.0,22.0,22.0,22.0,6.0,6.0,,3,False,0.0,None,right,False,2,1,0,enc,0,0,0,[],[],1,6,2 3 3 2 4 1,6
23,3.808143299999984,23,23.0,23.0,23.0,23.0,23.0,7.0,7.0,,3,True,0.5,acc,right,False,2,1,6,ret,1,10,0,"['1', '4', '2', '3', '3', '2']","[47.758076500000016, 48.430124399999954, 49.254227000000014, 50.86216509999997, 51.09423479999998, 51.5662198]",1,6,# # # # # #,None
24,0.0,24,24.0,24.0,24.0,24.0,24.0,8.0,8.0,,2,False,0.0,None,right,False,2,1,0,enc,0,0,0,[],[],1,6,4 3 2 1 3 4,4
25,6.831774900000028,25,25.0,25.0,25.0,25.0,25.0,9.0,9.0,,2,True,0.5,acc,right,True,2,1,4,ret,1,4,0,"['4', '3', '1', '2', '4', '3']","[60.734412099999986, 61.254049699999996, 64.19015579999996, 64.49422919999995, 67.16611750000004, 67.56618700000001]",1,6,# # # # # #,None
26,0.0,26,26.0,26.0,26.0,26.0,26.0,10.0,10.0,,2,False,0.0,None,right,False,2,1,0,enc,0,0,1,[],[],1,6,4 3 3 1 1 2,4
27,4.055949199999986,27,27.0,27.0,27.0,27.0,27.0,11.0,11.0,,2,True,0.5,acc,right,True,2,1,5,ret,1,5,1,"['4', '3', '3', '1', '4', '2']","[76.87824260000002, 77.31817439999998, 78.60621809999998, 79.28613419999999, 80.26223270000003, 80.93419180000001]",1,6,# # # # # #,None
28,0.0,28,28.0,28.0,28.0,28.0,28.0,12.0,12.0,,3,False,0.0,None,right,False,2,1,0,enc,0,0,0,[],[],1,6,2 3 4 2 2 1,6
29,4.599977599999988,29,29.0,29.0,29.0,29.0,29.0,13.0,13.0,,3,True,0.5,acc,right,False,2,1,6,ret,1,10,0,"['1', '2', '2', '4', '3', '2']","[87.6862059, 88.17407090000006, 88.44620169999996, 90.59820579999996, 91.73422330000005, 92.28618349999999]",1,6,# # # # # #,None
30,0.0,30,30.0,30.0,30.0,30.0,30.0,14.0,14.0,,2,False,0.0,None,right,False,2,1,0,enc,0,0,1,[],[],1,6,4 2 3 4 2 1,4
31,4.384003199999938,31,31.0,31.0,31.0,31.0,31.0,15.0,15.0,,2,True,0.5,acc,right,True,2,1,1,ret,1,1,1,"['4', '3', '2', '1', '3', '4']","[102.40624460000004, 102.85415039999998, 103.55851919999998, 104.02251690000003, 106.42212419999998, 106.79024779999997]",1,6,# # # # # #,None
32,0.0,32,32.0,32.0,32.0,32.0,32.0,16.0,16.0,,2,False,0.0,None,right,False,2,1,0,enc,0,0,1,[],[],1,6,1 4 1 3 2 4,4
33,5.407960500000058,33,33.0,33.0,33.0,33.0,33.0,17.0,17.0,,2,True,0.5,acc,right,True,2,1,4,ret,1,4,1,"['1', '4', '2', '3', '3', '4']","[116.84615959999996, 117.382067, 119.11813170000005, 119.48609309999995, 121.92610560000003, 122.25412010000002]",1,6,# # # # # #,None
34,0.0,34,34.0,34.0,34.0,34.0,34.0,18.0,18.0,,3,False,0.0,None,right,False,2,1,0,enc,0,0,0,[],[],1,6,2 3 3 3 3 4,6
35,3.1600550000000567,35,35.0,35.0,35.0,35.0,35.0,19.0,19.0,,3,True,0.5,acc,right,False,2,1,6,ret,1,10,0,"['4', '3', '3', '3', '3', '2']","[129.4940378, 131.0540264, 131.38206130000003, 131.71014049999997, 132.09402420000004, 132.65409280000006]",1,6,# # # # # #,None
36,0.0,36,36.0,36.0,36.0,36.0,36.0,20.0,20.0,,3,False,0.0,None,right,False,2,1,0,enc,0,0,1,[],[],1,6,1 1 3 2 2 4,6
37,2.2800852999998824,37,37.0,37.0,37.0,37.0,37.0,21.0,21.0,,3,True,0.5,acc,right,False,2,1,6,ret,1,10,1,"['1', '1', '3', '2', '2', '4']","[140.26994450000007, 140.5192664000001, 141.1580441000001, 141.8941072, 142.0941196000001, 142.55002979999995]",1,6,# # # # # #,None
38,0.0,38,38.0,38.0,38.0,38.0,38.0,22.0,22.0,,2,False,0.0,None,right,False,2,1,0,enc,0,0,0,[],[],1,6,4 1 1 1 4 4,4
39,5.415986299999987,39,39.0,39.0,39.0,39.0,39.0,23.0,23.0,,2,True,0.5,acc,right,True,2,1,2,ret,1,2,0,"['4', '1', '3', '2', '1', '1']","[154.68601820000003, 155.18210309999995, 159.03803850000008, 159.422008, 159.71789949999993, 160.10200450000002]",1,6,# # # # # #,None
40,0.0,40,40.0,40.0,40.0,40.0,0.0,0.0,,,3,False,0.0,None,right,False,2,1,0,enc,0,0,1,[],[],2,6,3 2 2 3 2 3,6
41,2.375908999999865,41,41.0,41.0,41.0,41.0,1.0,1.0,,,3,True,0.5,acc,right,False,2,1,6,ret,1,10,1,"['3', '2', '2', '3', '2', '3']","[5.630376200000001, 6.046338599999899, 6.334389299999884, 7.2782609999999295, 7.654351200000065, 8.006285199999866]",2,6,# # # # # #,None
42,0.0,42,42.0,42.0,42.0,42.0,2.0,2.0,,,2,False,0.0,None,right,False,2,1,0,enc,0,0,1,[],[],2,6,2 4 4 4 4 1,4
43,2.4878919999998743,43,43.0,43.0,43.0,43.0,3.0,3.0,,,2,True,0.5,acc,right,True,2,1,5,ret,1,5,1,"['2', '4', '4', '4', '4', '2']","[17.63038419999998, 18.06233640000005, 18.654372199999898, 18.95835390000002, 19.758413699999892, 20.118276199999855]",2,6,# # # # # #,None
44,0.0,44,44.0,44.0,44.0,44.0,4.0,4.0,,,3,False,0.0,None,right,False,2,1,0,enc,0,0,1,[],[],2,6,1 4 1 4 4 3,6
45,3.0399757000000136,45,45.0,45.0,45.0,45.0,5.0,5.0,,,3,True,0.5,acc,right,False,2,1,6,ret,1,10,1,"['1', '4', '1', '4', '4', '3']","[27.270234899999878, 27.58236029999989, 28.214311799999905, 29.5104409999999, 29.774264099999982, 30.31021059999989]",2,6,# # # # # #,None
46,0.0,46,46.0,46.0,46.0,46.0,6.0,6.0,,,3,False,0.0,None,right,False,2,1,0,enc,0,0,0,[],[],2,6,1 3 1 3 1 3,6
47,3.1678810000000794,47,47.0,47.0,47.0,47.0,7.0,7.0,,,3,True,0.5,acc,right,False,2,1,6,ret,1,10,0,"['3', '1', '3', '1', '3', '1']","[38.18235149999987, 38.590215199999875, 39.00634119999995, 40.51025249999998, 40.9341758999999, 41.35023249999995]",2,6,# # # # # #,None
48,0.0,48,48.0,48.0,48.0,48.0,8.0,8.0,,,2,False,0.0,None,right,False,2,1,0,enc,0,0,0,[],[],2,6,2 1 4 4 4 2,4
49,9.855992499999957,49,49.0,49.0,49.0,49.0,9.0,9.0,,,2,True,0.5,acc,right,True,2,1,0,ret,1,0,0,"['4', '2', '3', '2', '4', '1']","[51.15830159999996, 52.374213600000076, 59.718245099999876, 60.08630840000001, 60.446304600000076, 61.014294099999915]",2,6,# # # # # #,None
50,0.0,50,50.0,50.0,50.0,50.0,10.0,10.0,,,3,False,0.0,None,right,False,2,1,0,enc,0,0,0,[],[],2,6,3 3 4 1 2 3,6
51,8.769407900000033,51,51.0,51.0,51.0,51.0,11.0,11.0,,,3,True,0.5,acc,right,True,2,1,5,ret,1,5,0,"['3', '2', '1', '4', '3', '4']","[68.8782036, 70.09430750000001, 70.7421812, 75.75025400000004, 77.27015340000003, 77.64761150000004]",2,6,# # # # # #,None
52,0.0,52,52.0,52.0,52.0,52.0,12.0,12.0,,,2,False,0.0,None,right,False,2,1,0,enc,0,0,0,[],[],2,6,4 2 2 2 3 1,4
53,4.8480440000000735,53,53.0,53.0,53.0,53.0,13.0,13.0,,,2,True,0.5,acc,right,False,2,1,6,ret,1,10,0,"['1', '3', '2', '2', '2', '4']","[87.60624959999996, 88.13412160000007, 89.89420359999986, 90.15012030000003, 91.39815999999996, 92.45429360000003]",2,6,# # # # # #,None
54,0.0,54,54.0,54.0,54.0,54.0,14.0,14.0,,,3,False,0.0,None,right,False,2,1,0,enc,0,0,1,[],[],2,6,3 2 2 1 1 4,6
55,2.559970300000032,55,55.0,55.0,55.0,55.0,15.0,15.0,,,3,True,0.5,acc,right,True,2,1,5,ret,1,5,1,"['3', '2', '2', '1', '1', '3']","[99.81416669999999, 100.27018769999995, 100.65425579999987, 101.27014570000006, 101.56614220000006, 102.37413700000002]",2,6,# # # # # #,None
56,0.0,56,56.0,56.0,56.0,56.0,16.0,16.0,,,2,False,0.0,None,right,False,2,1,0,enc,0,0,0,[],[],2,6,4 3 2 1 2 2,4
57,5.231941699999879,57,57.0,57.0,57.0,57.0,17.0,17.0,,,2,True,0.5,acc,right,False,2,1,6,ret,1,10,0,"['2', '2', '1', '2', '3', '4']","[111.63816059999999, 111.90224839999996, 115.40607699999987, 115.97434909999993, 116.44614219999994, 116.87010229999987]",2,6,# # # # # #,None
58,0.0,58,58.0,58.0,58.0,58.0,18.0,18.0,,,2,False,0.0,None,right,False,2,1,0,enc,0,0,1,[],[],2,6,3 1 4 4 2 3,4
59,3.0719932000001786,59,59.0,59.0,59.0,59.0,19.0,19.0,,,2,True,0.5,acc,right,False,2,1,6,ret,1,10,1,"['3', '1', '4', '4', '2', '3']","[126.68612319999988, 127.22202229999994, 128.27808830000004, 128.56616259999987, 129.4781519999999, 129.75811640000006]",2,6,# # # # # #,None
60,0.0,60,60.0,60.0,60.0,60.0,20.0,20.0,,,3,False,0.0,None,right,False,2,1,0,enc,0,0,0,[],[],2,6,1 1 4 4 3 2,6
61,5.983932099999947,61,61.0,61.0,61.0,61.0,21.0,21.0,,,3,True,0.5,acc,right,False,2,1,6,ret,1,10,0,"['2', '3', '4', '4', '1', '1']","[140.71819000000005, 141.37416819999999, 143.4700479999999, 146.11007889999996, 146.4540055, 146.7021221]",2,6,# # # # # #,None
62,0.0,62,62.0,62.0,62.0,62.0,22.0,22.0,,,2,False,0.0,None,right,False,2,1,0,enc,0,0,1,[],[],2,6,4 2 1 2 4 1,4
63,5.871984500000052,63,63.0,63.0,63.0,63.0,23.0,23.0,,,2,True,0.5,acc,right,True,2,1,3,ret,1,3,1,"['4', '2', '1', '4', '2', '2']","[156.20613409999987, 156.72604619999993, 157.94234489999985, 158.3261215, 160.70205899999996, 162.07811859999993]",2,6,# # # # # #,None
64,0.0,64,64.0,64.0,64.0,0.0,0.0,,,,2,False,0.0,None,right,False,2,1,0,enc,0,0,1,[],[],3,6,1 3 3 1 2 3,4
65,3.0880537000000463,65,65.0,65.0,65.0,1.0,1.0,,,,2,True,0.5,acc,right,False,2,1,6,ret,1,10,1,"['1', '3', '3', '1', '2', '3']","[7.67467889999989, 7.994617600000083, 9.37865839999995, 9.71462049999991, 10.490824799999928, 10.762732599999936]",3,6,# # # # # #,None
66,0.0,66,66.0,66.0,66.0,2.0,2.0,,,,3,False,0.0,None,right,False,2,1,0,enc,0,0,0,[],[],3,6,2 3 1 2 2 1,6
67,5.807938100000001,67,67.0,67.0,67.0,3.0,3.0,,,,3,True,0.5,acc,right,True,2,1,4,ret,1,4,0,"['1', '2', '2', '3', '3', '1']","[17.794719700000087, 18.114621499999885, 18.426725600000054, 20.84283400000004, 23.10665629999994, 23.602657800000088]",3,6,# # # # # #,None
68,0.0,68,68.0,68.0,68.0,4.0,4.0,,,,3,False,0.0,None,right,False,2,1,0,enc,0,0,1,[],[],3,6,4 1 3 2 2 1,6
69,2.7040160999999903,69,69.0,69.0,69.0,5.0,5.0,,,,3,True,0.5,acc,right,False,2,1,6,ret,1,10,1,"['4', '1', '3', '2', '2', '1']","[31.098621299999877, 31.538625899999943, 32.29108350000001, 33.274661499999866, 33.53059280000002, 33.80263739999987]",3,6,# # # # # #,None
70,0.0,70,70.0,70.0,70.0,6.0,6.0,,,,2,False,0.0,None,right,False,2,1,0,enc,0,0,0,[],[],3,6,3 4 4 3 4 1,4
71,5.360418600000003,71,71.0,71.0,71.0,7.0,7.0,,,,2,True,0.5,acc,right,True,2,1,3,ret,1,3,0,"['1', '4', '4', '3', '3', '3']","[42.81865809999999, 43.33863059999999, 46.20264010000005, 46.61075729999993, 47.81066170000008, 48.179076699999996]",3,6,# # # # # #,None
72,0.0,72,72.0,72.0,72.0,8.0,8.0,,,,3,False,0.0,None,right,False,2,1,0,enc,0,0,1,[],[],3,6,1 2 2 4 4 3,6
73,2.111809100000073,73,73.0,73.0,73.0,9.0,9.0,,,,3,True,0.5,acc,right,False,2,1,6,ret,1,10,1,"['1', '2', '2', '4', '4', '3']","[54.5707382999999, 55.02654759999996, 55.322616200000084, 55.714557399999876, 56.0026421, 56.682547399999976]",3,6,# # # # # #,None
74,0.0,74,74.0,74.0,74.0,10.0,10.0,,,,2,False,0.0,None,right,False,2,1,0,enc,0,0,0,[],[],3,6,4 4 3 2 3 3,4
75,5.264012899999899,75,75.0,75.0,75.0,11.0,11.0,,,,2,True,0.5,acc,right,True,2,1,5,ret,1,5,0,"['3', '3', '2', '4', '4', '4']","[65.91455840000003, 66.13856379999993, 67.93859780000003, 68.33065770000007, 70.86663479999993, 71.17857129999993]",3,6,# # # # # #,None
76,0.0,76,76.0,76.0,76.0,12.0,12.0,,,,3,False,0.0,None,right,False,2,1,0,enc,0,0,0,[],[],3,6,2 4 3 2 2 4,6
77,4.088221200000135,77,77.0,77.0,77.0,13.0,13.0,,,,3,True,0.5,acc,right,False,2,1,6,ret,1,10,0,"['4', '2', '2', '3', '4', '2']","[78.03469769999992, 78.55462880000005, 78.81060449999995, 81.33051909999995, 81.69848460000003, 82.12291890000006]",3,6,# # # # # #,None
78,0.0,78,78.0,78.0,78.0,14.0,14.0,,,,2,False,0.0,None,right,False,2,1,0,enc,0,0,0,[],[],3,6,2 3 4 4 1 2,4
79,6.175903000000062,79,79.0,79.0,79.0,15.0,15.0,,,,2,True,0.5,acc,right,True,2,1,4,ret,1,4,0,"['2', '1', '4', '4', '4', '3']","[91.25059179999994, 91.56261390000009, 92.53079400000001, 92.83453570000006, 97.0825342999999, 97.4264948]",3,6,# # # # # #,None
80,0.0,80,80.0,80.0,80.0,16.0,16.0,,,,3,False,0.0,None,right,False,2,1,0,enc,0,0,1,[],[],3,6,2 1 1 2 4 1,6
81,4.5278577999999925,81,81.0,81.0,81.0,17.0,17.0,,,,3,True,0.5,acc,right,False,2,1,6,ret,1,10,1,"['2', '1', '1', '2', '4', '1']","[106.12250199999994, 106.47448639999993, 107.08255159999999, 108.75444289999996, 109.9464731999999, 110.65035979999993]",3,6,# # # # # #,None
82,0.0,82,82.0,82.0,82.0,18.0,18.0,,,,3,False,0.0,None,right,False,2,1,0,enc,0,0,0,[],[],3,6,3 2 1 1 3 2,6
83,8.256083799999942,83,83.0,83.0,83.0,19.0,19.0,,,,3,True,0.5,acc,right,True,2,1,4,ret,1,4,0,"['2', '3', '1', '1', '3', '2']","[118.85057890000007, 119.32250290000002, 120.02663389999998, 125.2584652999999, 126.70656000000008, 127.10666270000002]",3,6,# # # # # #,None
84,0.0,84,84.0,84.0,84.0,20.0,20.0,,,,2,False,0.0,None,right,False,2,1,0,enc,0,0,1,[],[],3,6,1 4 1 4 2 1,4
85,2.624045199999955,85,85.0,85.0,85.0,21.0,21.0,,,,2,True,0.5,acc,right,False,2,1,6,ret,1,10,1,"['1', '4', '1', '4', '2', '1']","[136.13041829999997, 136.49042910000003, 137.0184987, 137.46648149999987, 138.39454490000003, 138.75446349999993]",3,6,# # # # # #,None
86,0.0,86,86.0,86.0,86.0,22.0,22.0,,,,2,False,0.0,None,right,False,2,1,0,enc,0,0,1,[],[],3,6,1 3 2 1 1 3,4
87,3.2801470999997946,87,87.0,87.0,87.0,23.0,23.0,,,,2,True,0.5,acc,right,False,2,1,6,ret,1,10,1,"['1', '3', '2', '1', '1', '3']","[149.19440600000007, 149.54649399999994, 150.69853609999996, 151.0504891999999, 152.14644410000005, 152.47455309999987]",3,6,# # # # # #,None
88,0.0,88,88.0,88.0,0.0,0.0,,,,,2,False,0.0,None,right,False,2,1,0,enc,0,0,1,[],[],4,6,4 4 1 3 2 2,4
89,2.448009199999888,89,89.0,89.0,1.0,1.0,,,,,2,True,0.5,acc,right,False,2,1,6,ret,1,10,1,"['4', '4', '1', '3', '2', '2']","[7.471201900000096, 7.775317700000187, 8.823318299999983, 9.167264899999964, 9.695113600000013, 9.919211099999984]",4,6,# # # # # #,None
90,0.0,90,90.0,90.0,2.0,2.0,,,,,2,False,0.0,None,right,False,2,1,0,enc,0,0,0,[],[],4,6,3 2 1 3 4 3,4
91,6.960411400000337,91,91.0,91.0,3.0,3.0,,,,,2,True,0.5,acc,right,True,2,1,3,ret,1,3,0,"['3', '4', '2', '1', '3', '4']","[19.183236799999804, 19.66334299999994, 22.463309699999854, 22.751340200000186, 25.807234499999822, 26.143648200000143]",4,6,# # # # # #,None
92,0.0,92,92.0,92.0,4.0,4.0,,,,,3,False,0.0,None,right,False,2,1,0,enc,0,0,0,[],[],4,6,2 3 2 3 1 2,6
93,5.967936000000008,93,93.0,93.0,5.0,5.0,,,,,3,True,0.5,acc,right,True,2,1,3,ret,1,3,0,"['2', '1', '3', '3', '2', '3']","[33.59933500000011, 34.223297799999955, 35.015116199999966, 38.911220000000185, 39.27928110000016, 39.56727100000012]",4,6,# # # # # #,None
94,0.0,94,94.0,94.0,6.0,6.0,,,,,3,False,0.0,None,right,False,2,1,0,enc,0,0,1,[],[],4,6,4 4 4 2 2 1,6
95,2.2560104999997748,95,95.0,95.0,7.0,7.0,,,,,3,True,0.5,acc,right,True,2,1,5,ret,1,5,1,"['4', '4', '3', '2', '2', '1']","[46.44728680000003, 46.71922019999988, 47.24721960000011, 48.04721080000013, 48.27931620000004, 48.703297299999804]",4,6,# # # # # #,None
96,0.0,96,96.0,96.0,8.0,8.0,,,,,2,False,0.0,None,right,False,2,1,0,enc,0,0,1,[],[],4,6,3 1 4 3 4 1,4
97,5.656076299999768,97,97.0,97.0,9.0,9.0,,,,,2,True,0.5,acc,right,True,2,1,5,ret,1,5,1,"['3', '1', '4', '3', '2', '1']","[58.24718050000024, 58.727219000000105, 62.28727550000008, 62.7351713999999, 63.599156300000004, 63.90325680000001]",4,6,# # # # # #,None
98,0.0,98,98.0,98.0,10.0,10.0,,,,,3,False,0.0,None,right,False,2,1,0,enc,0,0,1,[],[],4,6,3 1 4 2 4 3,6
99,5.928015399999822,99,99.0,99.0,11.0,11.0,,,,,3,True,0.5,acc,right,True,2,1,3,ret,1,3,1,"['3', '4', '1', '2', '3', '3']","[72.24710990000017, 73.38303359999986, 73.91931950000003, 76.00712369999997, 76.44717719999994, 78.17512529999999]",4,6,# # # # # #,None
100,0.0,100,100.0,100.0,12.0,12.0,,,,,2,False,0.0,None,right,False,2,1,0,enc,0,0,0,[],[],4,6,2 1 4 1 4 4,4
101,4.439963100000114,101,101.0,101.0,13.0,13.0,,,,,2,True,0.5,acc,right,True,2,1,5,ret,1,5,0,"['4', '4', '1', '4', '1', '3']","[86.87117860000012, 87.16713970000023, 87.87916250000012, 88.43916220000006, 90.91917399999988, 91.31114170000023]",4,6,# # # # # #,None
102,0.0,102,102.0,102.0,14.0,14.0,,,,,3,False,0.0,None,right,False,2,1,0,enc,0,0,0,[],[],4,6,4 4 4 2 2 3,6
103,2.3600626000002194,103,103.0,103.0,15.0,15.0,,,,,3,True,0.5,acc,right,False,2,1,6,ret,1,10,0,"['3', '2', '2', '4', '4', '4']","[99.37510580000003, 99.91927869999995, 100.23118439999985, 101.17510860000016, 101.44711010000015, 101.73516840000025]",4,6,# # # # # #,None
104,0.0,104,104.0,104.0,16.0,16.0,,,,,2,False,0.0,None,right,False,2,1,0,enc,0,0,1,[],[],4,6,4 2 3 2 4 3,4
105,5.295965700000124,105,105.0,105.0,17.0,17.0,,,,,2,True,0.5,acc,right,True,2,1,2,ret,1,2,1,"['4', '3', '2', '3', '4', '1']","[111.4470945999999, 111.95972039999992, 113.83105790000013, 114.16717249999988, 116.44764529999998, 116.74306030000002]",4,6,# # # # # #,None
106,0.0,106,106.0,106.0,18.0,18.0,,,,,2,False,0.0,None,right,False,2,1,0,enc,0,0,0,[],[],4,6,4 4 2 3 3 4,4
107,5.2559948000002805,107,107.0,107.0,19.0,19.0,,,,,2,True,0.5,acc,right,True,2,1,3,ret,1,3,0,"['4', '3', '2', '3', '4', '3']","[125.65505099999996, 125.99113069999999, 127.23124359999997, 127.5111903999998, 130.2710681000001, 130.91104580000024]",4,6,# # # # # #,None
108,0.0,108,108.0,108.0,20.0,20.0,,,,,3,False,0.0,None,right,False,2,1,0,enc,0,0,1,[],[],4,6,3 3 3 1 1 2,6
109,2.031993899999634,109,109.0,109.0,21.0,21.0,,,,,3,True,0.5,acc,right,False,2,1,6,ret,1,10,1,"['3', '3', '3', '1', '1', '2']","[138.5269936000002, 138.79090689999998, 139.05506739999987, 140.00705859999994, 140.26311779999992, 140.55898749999983]",4,6,# # # # # #,None
110,0.0,110,110.0,110.0,22.0,22.0,,,,,3,False,0.0,None,right,False,2,1,0,enc,0,0,0,[],[],4,6,1 4 3 2 2 1,6
111,3.2399646999997462,111,111.0,111.0,23.0,23.0,,,,,3,True,0.5,acc,right,True,2,1,5,ret,1,5,0,"['1', '2', '2', '3', '4', '4']","[147.71907160000023, 148.04705480000007, 148.30304730000012, 150.05503599999997, 150.5270155999999, 150.95903629999998]",4,6,# # # # # #,None
112,0.0,112,112.0,0.0,0.0,,,,,,3,False,0.0,None,right,False,2,1,0,enc,0,0,1,[],[],5,6,4 3 1 1 1 1,6
113,1.9280702000000929,113,113.0,1.0,1.0,,,,,,3,True,0.5,acc,right,False,2,1,6,ret,1,10,1,"['4', '3', '1', '1', '1', '1']","[5.9949963999997635, 6.394934899999953, 6.850854100000106, 7.338870699999916, 7.6109261000001425, 7.923066599999856]",5,6,# # # # # #,None
114,0.0,114,114.0,2.0,2.0,,,,,,3,False,0.0,None,right,False,2,1,0,enc,0,0,1,[],[],5,6,2 4 2 3 2 4,6
115,3.3921101000000817,115,115.0,3.0,3.0,,,,,,3,True,0.5,acc,right,True,2,1,4,ret,1,4,1,"['2', '4', '2', '3', '4', '2']","[15.938875299999836, 16.588156499999968, 16.994884700000057, 17.93088549999993, 18.38687149999987, 19.330985399999918]",5,6,# # # # # #,None
116,0.0,116,116.0,4.0,4.0,,,,,,2,False,0.0,None,right,False,2,1,0,enc,0,0,1,[],[],5,6,4 3 3 2 2 2,4
117,2.9840186000001268,117,117.0,5.0,5.0,,,,,,2,True,0.5,acc,right,False,2,1,6,ret,1,10,1,"['4', '3', '3', '2', '2', '2']","[28.210873900000024, 28.57885380000016, 30.082947100000183, 30.458956099999796, 30.930961800000205, 31.19489250000015]",5,6,# # # # # #,None
118,0.0,118,118.0,6.0,6.0,,,,,,2,False,0.0,None,right,False,2,1,0,enc,0,0,1,[],[],5,6,2 3 1 3 2 3,4
119,2.1520454000001337,119,119.0,7.0,7.0,,,,,,2,True,0.5,acc,right,False,2,1,6,ret,1,10,1,"['2', '3', '1', '3', '2', '3']","[39.75489999999991, 40.090997100000095, 40.73086770000009, 41.07487039999978, 41.61094610000009, 41.90694540000004]",5,6,# # # # # #,None
120,0.0,120,120.0,8.0,8.0,,,,,,2,False,0.0,None,right,False,2,1,0,enc,0,0,0,[],[],5,6,3 2 3 1 3 4,4
121,6.544147300000078,121,121.0,9.0,9.0,,,,,,2,True,0.5,acc,right,True,2,1,2,ret,1,2,0,"['1', '3', '2', '3', '3', '2']","[51.77882679999993, 53.08291449999979, 55.01889200000005, 55.37879350000003, 58.00299820000009, 58.32297410000001]",5,6,# # # # # #,None
122,0.0,122,122.0,10.0,10.0,,,,,,3,False,0.0,None,right,False,2,1,0,enc,0,0,0,[],[],5,6,1 3 1 4 1 1,6
123,7.223746399999982,123,123.0,11.0,11.0,,,,,,3,True,0.5,acc,right,True,2,1,5,ret,1,5,0,"['1', '1', '4', '1', '3', '4']","[65.95503969999982, 66.21075659999997, 67.0348469999999, 72.09882169999992, 72.79481559999977, 73.1787860999998]",5,6,# # # # # #,None
124,0.0,124,124.0,12.0,12.0,,,,,,3,False,0.0,None,right,False,2,1,0,enc,0,0,0,[],[],5,6,3 3 4 4 1 1,6
125,5.3360012000002826,125,125.0,13.0,13.0,,,,,,3,True,0.5,acc,right,False,2,1,6,ret,1,10,0,"['1', '1', '4', '4', '3', '3']","[80.6829072999999, 80.97879779999994, 81.4988171, 85.45881819999977, 85.7868153999998, 86.01890850000018]",5,6,# # # # # #,None
126,0.0,126,126.0,14.0,14.0,,,,,,2,False,0.0,None,right,False,2,1,0,enc,0,0,0,[],[],5,6,1 4 1 2 4 4,4
127,5.239933199999996,127,127.0,15.0,15.0,,,,,,2,True,0.5,acc,right,True,2,1,4,ret,1,4,0,"['4', '4', '2', '4', '1', '1']","[95.49884070000007, 95.78672879999976, 98.86678040000015, 99.2348476000002, 100.45875720000004, 100.73877390000007]",5,6,# # # # # #,None
128,0.0,128,128.0,16.0,16.0,,,,,,2,False,0.0,None,right,False,2,1,0,enc,0,0,1,[],[],5,6,1 2 2 1 4 2,4
129,2.9600931999998465,129,129.0,17.0,17.0,,,,,,2,True,0.5,acc,right,False,2,1,6,ret,1,10,1,"['1', '2', '2', '1', '4', '2']","[110.53072320000001, 110.96287970000003, 111.71480489999976, 112.25868309999987, 112.93871050000007, 113.49081639999986]",5,6,# # # # # #,None
130,0.0,130,130.0,18.0,18.0,,,,,,3,False,0.0,None,right,False,2,1,0,enc,0,0,1,[],[],5,6,2 2 1 3 1 3,6
131,2.5359945999998668,131,131.0,19.0,19.0,,,,,,3,True,0.5,acc,right,False,2,1,6,ret,1,10,1,"['2', '2', '1', '3', '1', '3']","[120.38673569999992, 120.7066877000002, 121.0827491, 122.08271349999995, 122.55478390000007, 122.92273029999978]",5,6,# # # # # #,None
132,0.0,132,132.0,20.0,20.0,,,,,,2,False,0.0,None,right,False,2,1,0,enc,0,0,0,[],[],5,6,3 4 2 3 1 4,4
133,6.112080200000037,133,133.0,21.0,21.0,,,,,,2,True,0.5,acc,right,False,2,1,6,ret,1,10,0,"['4', '1', '3', '2', '4', '3']","[132.69067510000013, 133.46669840000004, 135.77875559999984, 136.15496080000003, 138.51472030000014, 138.80275530000017]",5,6,# # # # # #,None
134,0.0,134,134.0,22.0,22.0,,,,,,3,False,0.0,None,right,False,2,1,0,enc,0,0,0,[],[],5,6,2 3 3 3 4 2,6
135,4.071943800000098,135,135.0,23.0,23.0,,,,,,3,True,0.5,acc,right,False,2,1,6,ret,1,10,0,"['2', '4', '3', '3', '3', '2']","[146.73073939999995, 147.3306564999998, 148.16277290000016, 149.83470699999998, 150.11459239999976, 150.80268320000005]",5,6,# # # # # #,None
136,0.0,136,0.0,0.0,,,,,,,2,False,0.0,None,right,False,2,1,0,enc,0,0,1,[],[],6,6,2 3 1 1 2 3,4
137,1.97604709999996,137,1.0,1.0,,,,,,,2,True,0.5,acc,right,False,2,1,6,ret,1,10,1,"['2', '3', '1', '1', '2', '3']","[7.210414799999853, 7.522457699999904, 8.114387500000248, 8.37092100000018, 8.92242380000016, 9.186461899999813]",6,6,# # # # # #,None
138,0.0,138,2.0,2.0,,,,,,,3,False,0.0,None,right,False,2,1,0,enc,0,0,1,[],[],6,6,2 3 3 4 2 2,6
139,2.2640919000000395,139,3.0,3.0,,,,,,,3,True,0.5,acc,right,True,2,1,5,ret,1,5,1,"['2', '3', '3', '3', '2', '2']","[16.346352800000204, 16.618367099999887, 16.914453700000195, 17.58682200000021, 18.362379000000146, 18.610444700000244]",6,6,# # # # # #,None
140,0.0,140,4.0,4.0,,,,,,,2,False,0.0,None,right,False,2,1,0,enc,0,0,0,[],[],6,6,3 1 2 4 4 4,4
141,4.936252500000137,141,5.0,5.0,,,,,,,2,True,0.5,acc,right,True,2,1,3,ret,1,3,0,"['4', '4', '1', '2', '4', '4']","[27.482345500000065, 27.78650259999995, 29.53034549999984, 30.01028439999982, 32.138317200000074, 32.4185980000002]",6,6,# # # # # #,None
142,0.0,142,6.0,6.0,,,,,,,3,False,0.0,None,right,False,2,1,0,enc,0,0,1,[],[],6,6,3 3 1 3 2 2,6
143,2.4159697000000047,143,7.0,7.0,,,,,,,3,True,0.5,acc,right,False,2,1,6,ret,1,10,1,"['3', '3', '1', '3', '2', '2']","[40.09032109999998, 40.37844230000019, 40.79435960000001, 41.71432159999995, 42.074373599999944, 42.50629079999999]",6,6,# # # # # #,None
144,0.0,144,8.0,8.0,,,,,,,2,False,0.0,None,right,False,2,1,0,enc,0,0,1,[],[],6,6,1 2 2 2 4 1,4
145,3.4319616000002497,145,9.0,9.0,,,,,,,2,True,0.5,acc,right,False,2,1,6,ret,1,10,1,"['1', '2', '2', '2', '4', '1']","[51.354401099999905, 51.74631360000012, 52.56237539999984, 52.83434560000023, 53.80229730000019, 54.786362700000154]",6,6,# # # # # #,None
146,0.0,146,10.0,10.0,,,,,,,3,False,0.0,None,right,False,2,1,0,enc,0,0,1,[],[],6,6,3 1 4 4 2 4,6
147,3.272094399999787,147,11.0,11.0,,,,,,,3,True,0.5,acc,right,True,2,1,5,ret,1,5,1,"['3', '1', '4', '4', '1', '4']","[62.10626390000016, 62.43433499999992, 63.64231520000021, 64.58633770000006, 65.0822618000002, 65.37835829999995]",6,6,# # # # # #,None
148,0.0,148,12.0,12.0,,,,,,,3,False,0.0,None,right,False,2,1,0,enc,0,0,0,[],[],6,6,3 4 1 3 4 2,6
149,4.6159434000001065,149,13.0,13.0,,,,,,,3,True,0.5,acc,right,False,2,1,6,ret,1,10,0,"['2', '4', '3', '1', '4', '3']","[73.17031980000002, 73.59432259999994, 74.29037890000018, 75.69837989999996, 76.59426429999985, 77.78626320000012]",6,6,# # # # # #,None
150,0.0,150,14.0,14.0,,,,,,,3,False,0.0,None,right,False,2,1,0,enc,0,0,0,[],[],6,6,1 2 1 3 1 1,6
151,5.687904899999921,151,15.0,15.0,,,,,,,3,True,0.5,acc,right,True,2,1,4,ret,1,4,0,"['1', '1', '3', '1', '3', '2']","[84.85021929999994, 85.06633460000012, 85.60267879999992, 88.88219340000023, 89.63419569999996, 90.53812419999986]",6,6,# # # # # #,None
152,0.0,152,16.0,16.0,,,,,,,2,False,0.0,None,right,False,2,1,0,enc,0,0,1,[],[],6,6,2 1 4 3 3 2,4
153,5.079964300000029,153,17.0,17.0,,,,,,,2,True,0.5,acc,right,True,2,1,4,ret,1,4,1,"['2', '1', '4', '3', '2', '1']","[100.06621949999999, 100.31420900000012, 101.4743797000001, 101.85028890000012, 104.13817879999988, 105.14618380000002]",6,6,# # # # # #,None
154,0.0,154,18.0,18.0,,,,,,,2,False,0.0,None,right,False,2,1,0,enc,0,0,0,[],[],6,6,1 4 4 1 2 3,4
155,4.647931399999834,155,19.0,19.0,,,,,,,2,True,0.5,acc,right,True,2,1,4,ret,1,4,0,"['3', '4', '1', '2', '4', '1']","[114.45819470000015, 114.85027189999983, 116.12218040000016, 116.55404829999998, 118.58618460000025, 119.10612609999998]",6,6,# # # # # #,None
156,0.0,156,20.0,20.0,,,,,,,2,False,0.0,None,right,False,2,1,0,enc,0,0,0,[],[],6,6,2 1 2 3 4 4,4
157,3.3519587999999203,157,21.0,21.0,,,,,,,2,True,0.5,acc,right,False,2,1,6,ret,1,10,0,"['4', '4', '3', '2', '1', '2']","[128.03415380000024, 128.29020390000005, 129.44212830000015, 129.7543128000002, 131.14715909999995, 131.38611260000016]",6,6,# # # # # #,None
158,0.0,158,22.0,22.0,,,,,,,3,False,0.0,None,right,False,2,1,0,enc,0,0,0,[],[],6,6,3 1 3 4 2 3,6
159,9.392029399999958,159,23.0,23.0,,,,,,,3,True,0.5,acc,right,True,2,1,1,ret,1,1,0,"['3', '1', '3', '4', '2', '1']","[138.50611449999997, 139.52212400000008, 140.08215729999984, 147.03414030000022, 147.61820690000013, 147.89814389999992]",6,6,# # # # # #,None
160,0.0,0,0.0,,,,,,,,2,False,0.0,None,right,False,2,1,0,enc,0,0,1,[],[],7,6,2 4 4 2 1 3,4
161,2.8798659000003686,1,1.0,,,,,,,,2,True,0.5,acc,right,False,2,1,6,ret,1,10,1,"['2', '4', '4', '2', '1', '3']","[7.755160899999737, 8.042967699999735, 9.130923400000029, 9.707508399999824, 10.250856999999996, 10.635026800000105]",7,6,# # # # # #,None
162,0.0,2,2.0,,,,,,,,3,False,0.0,None,right,False,2,1,0,enc,0,0,1,[],[],7,6,2 4 3 1 4 4,6
163,2.7920073000000234,3,3.0,,,,,,,,3,True,0.5,acc,right,False,2,1,6,ret,1,10,1,"['2', '4', '3', '1', '4', '4']","[17.531041299999742, 18.075039899999865, 18.81103630000007, 19.626970999999685, 20.00301330000002, 20.323048599999765]",7,6,# # # # # #,None
164,0.0,4,4.0,,,,,,,,3,False,0.0,None,right,False,2,1,0,enc,0,0,1,[],[],7,6,3 3 4 4 4 1,6
165,2.6159316000002946,5,5.0,,,,,,,,3,True,0.5,acc,right,True,2,1,4,ret,1,4,1,"['3', '3', '4', '3', '3', '1']","[27.602903399999832, 27.802892899999733, 28.186863399999766, 28.715166299999964, 28.95506660000001, 30.218835000000126]",7,6,# # # # # #,None
166,0.0,6,6.0,,,,,,,,2,False,0.0,None,right,False,2,1,0,enc,0,0,1,[],[],7,6,4 1 2 3 3 2,4
167,2.463810100000046,7,7.0,,,,,,,,2,True,0.5,acc,right,False,2,1,6,ret,1,10,1,"['4', '1', '2', '3', '3', '2']","[39.15513340000007, 39.60299979999991, 40.39497570000003, 40.78689140000006, 41.322954599999775, 41.618943500000114]",7,6,# # # # # #,None
168,0.0,8,8.0,,,,,,,,3,False,0.0,None,right,False,2,1,0,enc,0,0,0,[],[],7,6,3 4 2 1 2 2,6
169,3.952168100000108,9,9.0,,,,,,,,3,True,0.5,acc,right,False,2,1,6,ret,1,10,0,"['2', '2', '1', '2', '4', '3']","[48.93097929999976, 49.138972100000046, 49.57886109999981, 51.31492669999989, 52.47489050000013, 52.88314739999987]",7,6,# # # # # #,None
170,0.0,10,10.0,,,,,,,,2,False,0.0,None,right,False,2,1,0,enc,0,0,0,[],[],7,6,4 4 3 4 3 3,4
171,7.183885299999928,11,11.0,,,,,,,,2,True,0.5,acc,right,True,2,1,4,ret,1,4,0,"['2', '2', '4', '3', '4', '4']","[62.67496429999983, 62.8509626, 67.73890249999977, 67.97885330000008, 69.61887079999997, 69.85884959999976]",7,6,# # # # # #,None
172,0.0,12,12.0,,,,,,,,2,False,0.0,None,right,False,2,1,0,enc,0,0,0,[],[],7,6,4 1 4 1 4 2,4
173,3.2479773000000023,13,13.0,,,,,,,,2,True,0.5,acc,right,False,2,1,6,ret,1,10,0,"['2', '4', '1', '4', '1', '4']","[80.72289959999989, 81.04292880000003, 82.77080780000006, 83.06689809999989, 83.62676959999999, 83.9708768999999]",7,6,# # # # # #,None
174,0.0,14,14.0,,,,,,,,3,False,0.0,None,right,False,2,1,0,enc,0,0,1,[],[],7,6,2 1 4 3 1 2,6
175,3.2560747000002266,15,15.0,,,,,,,,3,True,0.5,acc,right,False,2,1,6,ret,1,10,1,"['2', '1', '4', '3', '1', '2']","[91.45079069999974, 91.82687570000007, 92.25087129999974, 93.69882139999982, 94.12283579999985, 94.70686539999997]",7,6,# # # # # #,None
176,0.0,16,16.0,,,,,,,,2,False,0.0,None,right,False,2,1,0,enc,0,0,0,[],[],7,6,4 4 4 2 4 2,4
177,3.7839834999999766,17,17.0,,,,,,,,2,True,0.5,acc,right,True,2,1,5,ret,1,5,0,"['2', '4', '4', '4', '4', '4']","[103.69082019999996, 105.8347660999998, 106.13880969999991, 106.73886110000012, 107.09875920000013, 107.47480369999994]",7,6,# # # # # #,None
178,0.0,18,18.0,,,,,,,,3,False,0.0,None,right,False,2,1,0,enc,0,0,0,[],[],7,6,3 1 4 4 2 4,6
179,4.640051500000028,19,19.0,,,,,,,,3,True,0.5,acc,right,True,2,1,3,ret,1,3,0,"['4', '2', '4', '3', '3', '4']","[115.55472689999988, 116.46684670000013, 117.06673599999976, 119.40268609999976, 119.69066609999982, 120.1947783999999]",7,6,# # # # # #,None
180,0.0,20,20.0,,,,,,,,3,False,0.0,None,right,False,2,1,0,enc,0,0,0,[],[],7,6,1 4 2 2 3 4,6
181,6.335638000000018,21,21.0,,,,,,,,3,True,0.5,acc,right,True,2,1,4,ret,1,4,0,"['4', '3', '2', '4', '3', '1']","[128.10714729999972, 130.09875349999993, 130.43476929999997, 133.8267482000001, 134.10679429999982, 134.44278529999974]",7,6,# # # # # #,None
182,0.0,22,22.0,,,,,,,,2,False,0.0,None,right,False,2,1,0,enc,0,0,1,[],[],7,6,1 1 2 1 1 3,4
183,2.8003416999999904,23,23.0,,,,,,,,2,True,0.5,acc,right,False,2,1,6,ret,1,10,1,"['1', '1', '2', '1', '1', '3']","[143.314707, 143.53082949999998, 144.2347394999997, 144.58676089999972, 145.5628168999997, 146.1150487]",7,6,# # # # # #,None
0,0.0,0,,,,,,,,,2,False,0.0,None,right,False,2,1,0,enc,0,0,1,[],[],8,6,4 2 3 2 2 2,4
1,2.9440675999999257,1,,,,,,,,,2,True,0.5,acc,right,True,2,1,5,ret,1,5,1,"['4', '2', '3', '4', '2', '2']","[7.588029800000186, 7.916060400000333, 8.89206110000032, 9.332118100000116, 10.276184000000285, 10.532097400000112]",8,6,# # # # # #,None
2,0.0,2,,,,,,,,,2,False,0.0,None,right,False,2,1,0,enc,0,0,1,[],[],8,6,1 1 1 3 1 4,4
3,2.6560300000001007,3,,,,,,,,,2,True,0.5,acc,right,False,2,1,6,ret,1,10,1,"['1', '1', '1', '3', '1', '4']","[19.372181400000045, 19.58017340000015, 21.036106400000335, 21.36419539999997, 21.708192600000075, 22.028211400000146]",8,6,# # # # # #,None
4,0.0,4,,,,,,,,,2,False,0.0,None,right,False,2,1,0,enc,0,0,0,[],[],8,6,2 1 2 1 3 4,4
5,2.8240053999998054,5,,,,,,,,,2,True,0.5,acc,right,False,2,1,6,ret,1,10,0,"['4', '3', '1', '2', '1', '2']","[30.076145400000314, 30.340133400000013, 31.99608380000018, 32.27608760000021, 32.57218140000032, 32.90015080000012]",8,6,# # # # # #,None
6,0.0,6,,,,,,,,,2,False,0.0,None,right,False,2,1,0,enc,0,0,1,[],[],8,6,1 3 1 4 2 3,4
7,2.240051599999788,7,,,,,,,,,2,True,0.5,acc,right,False,2,1,6,ret,1,10,1,"['1', '3', '1', '4', '2', '3']","[42.716063900000336, 43.188028999999915, 43.6760505000002, 44.04415450000033, 44.62813520000009, 44.956115500000124]",8,6,# # # # # #,None
8,0.0,8,,,,,,,,,3,False,0.0,None,right,False,2,1,0,enc,0,0,1,[],[],8,6,1 4 3 3 2 2,6
9,2.680075699999634,9,,,,,,,,,3,True,0.5,acc,right,False,2,1,6,ret,1,10,1,"['1', '4', '3', '3', '2', '2']","[51.411985500000355, 51.980231600000025, 52.62005780000027, 53.57212180000033, 53.87602560000005, 54.09206119999999]",8,6,# # # # # #,None
10,0.0,10,,,,,,,,,2,False,0.0,None,right,False,2,1,0,enc,0,0,0,[],[],8,6,4 3 3 4 4 1,4
11,4.055988999999954,11,,,,,,,,,2,True,0.5,acc,right,True,2,1,2,ret,1,2,0,"['1', '4', '3', '4', '4', '3']","[62.90812770000002, 63.22803270000031, 64.99587880000036, 65.37201510000023, 66.64401769999995, 66.96411669999998]",8,6,# # # # # #,None
12,0.0,12,,,,,,,,,2,False,0.0,None,right,False,2,1,0,enc,0,0,0,[],[],8,6,3 1 3 2 4 2,4
13,7.367226200000005,13,,,,,,,,,2,True,0.5,acc,right,True,2,1,2,ret,1,2,0,"['2', '4', '3', '4', '2', '1']","[76.04474640000035, 76.35605830000031, 79.15599020000036, 79.74810000000025, 83.16387490000034, 83.41197260000035]",8,6,# # # # # #,None
14,0.0,14,,,,,,,,,3,False,0.0,None,right,False,2,1,0,enc,0,0,1,[],[],8,6,1 3 2 3 3 3,6
15,1.8799106999999822,15,,,,,,,,,3,True,0.5,acc,right,False,2,1,6,ret,1,10,1,"['1', '3', '2', '3', '3', '3']","[90.34007620000011, 90.66000220000024, 91.07599440000013, 91.652063, 91.97211510000034, 92.2199869000001]",8,6,# # # # # #,None
16,0.0,16,,,,,,,,,3,False,0.0,None,right,False,2,1,0,enc,0,0,1,[],[],8,6,4 2 4 4 2 4,6
17,2.4479679000000942,17,,,,,,,,,3,True,0.5,acc,right,True,2,1,3,ret,1,3,1,"['4', '2', '4', '2', '4', '2']","[99.32398360000025, 99.82800769999994, 100.21195880000005, 100.68389479999996, 101.04405260000021, 101.77195150000034]",8,6,# # # # # #,None
18,0.0,18,,,,,,,,,3,False,0.0,None,right,False,2,1,0,enc,0,0,0,[],[],8,6,1 2 2 3 1 1,6
19,7.663878199999999,19,,,,,,,,,3,True,0.5,acc,right,False,2,1,6,ret,1,10,0,"['1', '1', '3', '2', '2', '1']","[108.89202890000024, 109.11596150000014, 110.13208410000016, 114.43596300000036, 114.67592259999992, 116.55590710000024]",8,6,# # # # # #,None
20,0.0,20,,,,,,,,,3,False,0.0,None,right,False,2,1,0,enc,0,0,0,[],[],8,6,2 3 1 1 3 4,6
21,6.183703300000161,21,,,,,,,,,3,True,0.5,acc,right,True,2,1,4,ret,1,4,0,"['4', '3', '1', '2', '3', '1']","[124.36430199999995, 124.75597000000016, 127.08389940000006, 130.00399940000034, 130.25997720000032, 130.5480053000001]",8,6,# # # # # #,None
22,0.0,22,,,,,,,,,3,False,0.0,None,right,False,2,1,0,enc,0,0,0,[],[],8,6,4 3 2 2 1 3,6
23,5.383990799999992,23,,,,,,,,,3,True,0.5,acc,right,False,2,1,6,ret,1,10,0,"['3', '1', '2', '2', '3', '4']","[138.44389309999997, 139.38790960000006, 139.69987040000024, 142.67590770000015, 143.40389240000013, 143.82788389999996]",8,6,# # # # # #,None
